"parid"	"scheduleID"	"react1"	"react2"	"accuracy"	"note"	"number"	"correctans"	"audio"	"video"	"context"	"group"	"type"	"beep_response"	"length1"	"length2"	"batch"	"original_label"	"videoname"	"Task.Version"	"Spreadsheet"	"Response"	"display"	"randomise_blocks"	"row_number"	"filename"	"rowmean"	"block"	"Experiment.Version"	"Participant.OS"	"Participant.Browser"	"randomiser_t27m"	"date.of.birth_year"	"date.of.birth_month"	"sex"	"languages"	"response_6"	"response_6_text"	"mask.problems"	"Difficulty.x"	"Tiring"	"more.info.on.masks"	"Difficulty.y"	"Distraction"	"response_4_1"	"response_4_2"	"response_4_3"	"response_4_4"	"response_4_text"	"response_5"	"Comments"	"SUBJECT"	"ITEM"	"RT"	"GROUP"	"AUDIO"	"VIDEO"	"PREDICT"	"ACOUSTIC"	"VISUAL"	"PREDICTABILITY"	"ACC"	"CONDITION"	"TRIAL"	"BLOCK"	"AGE"	"SEX"	"LIST"
"210719_a25"	14557507	890.293005558671	575.217567397281	1	"including pre-nasalisation"	"39H"	"dent"	"aNM"	"vM"	"H"	"a"	"aNMvM"	2.67036455284181	1.78007154728314	2.09514698544453	1	"14557507_39HaNMvM"	"39H_aNM_vM.mp4"	7	"Version8"	"https://gorilla.sc/uploads/schedule/14557507?filename=39HaNMvMmp4-59-2.weba"	"Block1"	1	48	"/Users/kechun/Documents/GitHub/PerMaSC/Maskanalysis/questionnaire/adult randomizer/data_exp_58324-v7_task-fbmh.csv"	46	2	7	"Windows 10"	"Chrome 92.0.4515.107"	"Version8"	26	3	"Female"	"English"	"Born and raised in the UK"	NA	"Yes sometimes"	3	2	""	1	2	"Everything worked well"	NA	NA	NA	NA	NA	NA	"210719_a25"	"39H"	575.217567397281	"Adults"	"aNM"	"vM"	"H"	"No Acoustic Mask"	"Visual Mask"	"High Predictability"	"1"	"aNMvM"	48	"2"	26.25	"Female"	"Version8"
"210719_a25"	14557507	633.130951215499	351.740805712849	1	"including prenasalisation"	"9L"	"blast"	"aNM"	"vNM"	"L"	"a"	"aNMvNM"	2.48854260588226	1.85541165466676	2.13680180016941	1	"14557507_9LaNMvNM"	"9L_aNM_vNM.mp4"	7	"Version8"	"https://gorilla.sc/uploads/schedule/14557507?filename=9LaNMvNMmp4-132-2.weba"	"Block1"	4	117	"/Users/kechun/Documents/GitHub/PerMaSC/Maskanalysis/questionnaire/adult randomizer/data_exp_58324-v7_task-fbmh.csv"	106	4	7	"Windows 10"	"Chrome 92.0.4515.107"	"Version8"	26	3	"Female"	"English"	"Born and raised in the UK"	NA	"Yes sometimes"	3	2	""	1	2	"Everything worked well"	NA	NA	NA	NA	NA	NA	"210719_a25"	"9L"	351.740805712849	"Adults"	"aNM"	"vNM"	"L"	"No Acoustic Mask"	"No Visual Mask"	"Low Predictability"	"1"	"aNMvNM"	117	"4"	26.25	"Female"	"Version8"
"210719_c12"	14456668	307.086101861472	143.704691605052	1	"onset not sure"	"112H"	"shed"	"aNM"	"vNM"	"H"	"c"	"aNMvNM"	2.28964582523062	1.98255972336915	2.14594113362557	1	"14456668_112HaNMvNM"	"112H_aNM_vNM.mp4"	7	"Version2"	"https://gorilla.sc/uploads/schedule/14456668?filename=112HaNMvNMmp4-93-2.weba"	"Block1"	4	80	"/Users/kechun/Documents/GitHub/PerMaSC/Maskanalysis/questionnaire/child randomizer/data_exp_58325-v3_task-tucf.csv"	76	3	3	"Chromium OS 13904.77.0"	"Chrome 91.0.4472.147"	"Version2"	10	7	"Female"	"English and another language (bilingual)"	"Born and raised in the UK"	NA	"I don't know"	2	1	NA	1	1	"Everything worked well"	NA	NA	NA	NA	NA	NA	"210719_c12"	"112H"	143.704691605052	"Children"	"aNM"	"vNM"	"H"	"No Acoustic Mask"	"No Visual Mask"	"High Predictability"	"1"	"aNMvNM"	80	"3"	10.5833333333333	"Female"	"Version2"
"210719_c12"	14456668	459.433274026313	316.209815175983	1	"including pre-nasalisation"	"12H"	"bread"	"aNM"	"vNM"	"H"	"c"	"aNMvNM"	2.75744794151899	2.29801466749268	2.44123812634301	1	"14456668_12HaNMvNM"	"12H_aNM_vNM.mp4"	7	"Version2"	"https://gorilla.sc/uploads/schedule/14456668?filename=12HaNMvNMmp4-29-2.weba"	"Block1"	3	20	"/Users/kechun/Documents/GitHub/PerMaSC/Maskanalysis/questionnaire/child randomizer/data_exp_58325-v3_task-tucf.csv"	16	1	3	"Chromium OS 13904.77.0"	"Chrome 91.0.4472.147"	"Version2"	10	7	"Female"	"English and another language (bilingual)"	"Born and raised in the UK"	NA	"I don't know"	2	1	NA	1	1	"Everything worked well"	NA	NA	NA	NA	NA	NA	"210719_c12"	"12H"	316.209815175983	"Children"	"aNM"	"vNM"	"H"	"No Acoustic Mask"	"No Visual Mask"	"High Predictability"	"1"	"aNMvNM"	20	"1"	10.5833333333333	"Female"	"Version2"
"210719_c12"	14456668	352.057433132525	79.2878017223848	1	"preceded by f"	"131H"	"thief"	"aM"	"vM"	"H"	"c"	"aMvM"	2.20602676439585	1.85396933126333	2.12673896267347	1	"14456668_131HaMvM"	"131H_aM_vM.mp4"	7	"Version2"	"https://gorilla.sc/uploads/schedule/14456668?filename=131HaMvMmp4-121-2.weba"	"Block1"	2	106	"/Users/kechun/Documents/GitHub/PerMaSC/Maskanalysis/questionnaire/child randomizer/data_exp_58325-v3_task-tucf.csv"	106	4	3	"Chromium OS 13904.77.0"	"Chrome 91.0.4472.147"	"Version2"	10	7	"Female"	"English and another language (bilingual)"	"Born and raised in the UK"	NA	"I don't know"	2	1	NA	1	1	"Everything worked well"	NA	NA	NA	NA	NA	NA	"210719_c12"	"131H"	79.2878017223848	"Children"	"aM"	"vM"	"H"	"Acoustic Mask"	"Visual Mask"	"High Predictability"	"1"	"aMvM"	106	"4"	10.5833333333333	"Female"	"Version2"
"210719_c12"	14456668	601.386703740346	256.200933942656	1	"say 'many thorns'"	"132L"	"thorns"	"aM"	"vNM"	"L"	"c"	"aMvNM"	2.91141015318285	2.3100234494425	2.65520921924019	1	"14456668_132LaMvNM"	"132L_aM_vNM.mp4"	7	"Version2"	"https://gorilla.sc/uploads/schedule/14456668?filename=132LaMvNMmp4-32-2.weba"	"Block1"	3	23	"/Users/kechun/Documents/GitHub/PerMaSC/Maskanalysis/questionnaire/child randomizer/data_exp_58325-v3_task-tucf.csv"	16	1	3	"Chromium OS 13904.77.0"	"Chrome 91.0.4472.147"	"Version2"	10	7	"Female"	"English and another language (bilingual)"	"Born and raised in the UK"	NA	"I don't know"	2	1	NA	1	1	"Everything worked well"	NA	NA	NA	NA	NA	NA	"210719_c12"	"132L"	256.200933942656	"Children"	"aM"	"vNM"	"L"	"Acoustic Mask"	"No Visual Mask"	"Low Predictability"	"1"	"aMvNM"	23	"1"	10.5833333333333	"Female"	"Version2"
"210719_c12"	14456668	660.346897312911	554.574747012241	1	"pre-nasalisation"	"2H"	"barn"	"aNM"	"vNM"	"H"	"c"	"aNMvNM"	2.58348807714492	1.92314117983201	2.02891333013268	1	"14456668_2HaNMvNM"	"2H_aNM_vNM.mp4"	7	"Version2"	"https://gorilla.sc/uploads/schedule/14456668?filename=2HaNMvNMmp4-69-2.weba"	"Block1"	1	58	"/Users/kechun/Documents/GitHub/PerMaSC/Maskanalysis/questionnaire/child randomizer/data_exp_58325-v3_task-tucf.csv"	46	2	3	"Chromium OS 13904.77.0"	"Chrome 91.0.4472.147"	"Version2"	10	7	"Female"	"English and another language (bilingual)"	"Born and raised in the UK"	NA	"I don't know"	2	1	NA	1	1	"Everything worked well"	NA	NA	NA	NA	NA	NA	"210719_c12"	"2H"	554.574747012241	"Children"	"aNM"	"vNM"	"H"	"No Acoustic Mask"	"No Visual Mask"	"High Predictability"	"1"	"aNMvNM"	58	"2"	10.5833333333333	"Female"	"Version2"
"210719_c12"	14456668	653.279822563012	550.867620182062	1	"pre-nasalisation"	"38H"	"den"	"aNM"	"vM"	"H"	"c"	"aNMvM"	3.0993382505207	2.44605842795769	2.54847063033864	1	"14456668_38HaNMvM"	"38H_aNM_vM.mp4"	7	"Version2"	"https://gorilla.sc/uploads/schedule/14456668?filename=38HaNMvMmp4-16-2.weba"	"Block1"	3	7	"/Users/kechun/Documents/GitHub/PerMaSC/Maskanalysis/questionnaire/child randomizer/data_exp_58325-v3_task-tucf.csv"	16	1	3	"Chromium OS 13904.77.0"	"Chrome 91.0.4472.147"	"Version2"	10	7	"Female"	"English and another language (bilingual)"	"Born and raised in the UK"	NA	"I don't know"	2	1	NA	1	1	"Everything worked well"	NA	NA	NA	NA	NA	NA	"210719_c12"	"38H"	550.867620182062	"Children"	"aNM"	"vM"	"H"	"No Acoustic Mask"	"Visual Mask"	"High Predictability"	"1"	"aNMvM"	7	"1"	10.5833333333333	"Female"	"Version2"
"210719_c12"	14456668	401.295235963021	275.561011853841	1	"including pre-nasalisation"	"58H"	"goal"	"aNM"	"vM"	"H"	"c"	"aNMvM"	2.47632547086205	2.07503023489903	2.20076445900821	1	"14456668_58HaNMvM"	"58H_aNM_vM.mp4"	7	"Version2"	"https://gorilla.sc/uploads/schedule/14456668?filename=58HaNMvMmp4-130-2.weba"	"Block1"	2	115	"/Users/kechun/Documents/GitHub/PerMaSC/Maskanalysis/questionnaire/child randomizer/data_exp_58325-v3_task-tucf.csv"	106	4	3	"Chromium OS 13904.77.0"	"Chrome 91.0.4472.147"	"Version2"	10	7	"Female"	"English and another language (bilingual)"	"Born and raised in the UK"	NA	"I don't know"	2	1	NA	1	1	"Everything worked well"	NA	NA	NA	NA	NA	NA	"210719_c12"	"58H"	275.561011853841	"Children"	"aNM"	"vM"	"H"	"No Acoustic Mask"	"Visual Mask"	"High Predictability"	"1"	"aNMvM"	115	"4"	10.5833333333333	"Female"	"Version2"
"210719_c12"	14456668	561.345996056081	448.583099230681	1	"pre-nasalisation"	"5H"	"beam"	"aNM"	"vM"	"H"	"c"	"aNMvM"	2.6849907026521	2.12364470659602	2.23640760342142	1	"14456668_5HaNMvM"	"5H_aNM_vM.mp4"	7	"Version2"	"https://gorilla.sc/uploads/schedule/14456668?filename=5HaNMvMmp4-77-2.weba"	"Block1"	4	64	"/Users/kechun/Documents/GitHub/PerMaSC/Maskanalysis/questionnaire/child randomizer/data_exp_58325-v3_task-tucf.csv"	76	3	3	"Chromium OS 13904.77.0"	"Chrome 91.0.4472.147"	"Version2"	10	7	"Female"	"English and another language (bilingual)"	"Born and raised in the UK"	NA	"I don't know"	2	1	NA	1	1	"Everything worked well"	NA	NA	NA	NA	NA	NA	"210719_c12"	"5H"	448.583099230681	"Children"	"aNM"	"vM"	"H"	"No Acoustic Mask"	"Visual Mask"	"High Predictability"	"1"	"aNMvM"	64	"3"	10.5833333333333	"Female"	"Version2"
"210719_c12"	14456668	463.141266039391	340.948308759731	1	"pre-nasalisation"	"60L"	"grin"	"aNM"	"vNM"	"L"	"c"	"aNMvNM"	2.7627835372826	2.29964227124321	2.42183522852287	1	"14456668_60LaNMvNM"	"60L_aNM_vNM.mp4"	7	"Version2"	"https://gorilla.sc/uploads/schedule/14456668?filename=60LaNMvNMmp4-60-2.weba"	"Block1"	1	49	"/Users/kechun/Documents/GitHub/PerMaSC/Maskanalysis/questionnaire/child randomizer/data_exp_58325-v3_task-tucf.csv"	46	2	3	"Chromium OS 13904.77.0"	"Chrome 91.0.4472.147"	"Version2"	10	7	"Female"	"English and another language (bilingual)"	"Born and raised in the UK"	NA	"I don't know"	2	1	NA	1	1	"Everything worked well"	NA	NA	NA	NA	NA	NA	"210719_c12"	"60L"	340.948308759731	"Children"	"aNM"	"vNM"	"L"	"No Acoustic Mask"	"No Visual Mask"	"Low Predictability"	"1"	"aNMvNM"	49	"2"	10.5833333333333	"Female"	"Version2"
"210719_c12"	14456668	518.134668406847	392.145651966927	1	"pre-nasalisation"	"61H"	"growl"	"aM"	"vM"	"H"	"c"	"aMvM"	2.62567843996209	2.10754377155524	2.23353278799516	1	"14456668_61HaMvM"	"61H_aM_vM.mp4"	7	"Version2"	"https://gorilla.sc/uploads/schedule/14456668?filename=61HaMvMmp4-126-2.weba"	"Block1"	2	111	"/Users/kechun/Documents/GitHub/PerMaSC/Maskanalysis/questionnaire/child randomizer/data_exp_58325-v3_task-tucf.csv"	106	4	3	"Chromium OS 13904.77.0"	"Chrome 91.0.4472.147"	"Version2"	10	7	"Female"	"English and another language (bilingual)"	"Born and raised in the UK"	NA	"I don't know"	2	1	NA	1	1	"Everything worked well"	NA	NA	NA	NA	NA	NA	"210719_c12"	"61H"	392.145651966927	"Children"	"aM"	"vM"	"H"	"Acoustic Mask"	"Visual Mask"	"High Predictability"	"1"	"aMvM"	111	"4"	10.5833333333333	"Female"	"Version2"
"210719_c12"	14456668	483.18702097295	223.72542717945	1	"pre-nasalisation"	"72L"	"juice"	"aNM"	"vNM"	"L"	"c"	"aNMvNM"	2.58734857971605	2.1041615587431	2.3636231525366	1	"14456668_72LaNMvNM"	"72L_aNM_vNM.mp4"	7	"Version2"	"https://gorilla.sc/uploads/schedule/14456668?filename=72LaNMvNMmp4-96-2.weba"	"Block1"	4	83	"/Users/kechun/Documents/GitHub/PerMaSC/Maskanalysis/questionnaire/child randomizer/data_exp_58325-v3_task-tucf.csv"	76	3	3	"Chromium OS 13904.77.0"	"Chrome 91.0.4472.147"	"Version2"	10	7	"Female"	"English and another language (bilingual)"	"Born and raised in the UK"	NA	"I don't know"	2	1	NA	1	1	"Everything worked well"	NA	NA	NA	NA	NA	NA	"210719_c12"	"72L"	223.72542717945	"Children"	"aNM"	"vNM"	"L"	"No Acoustic Mask"	"No Visual Mask"	"Low Predictability"	"1"	"aNMvNM"	83	"3"	10.5833333333333	"Female"	"Version2"
"210719_c47"	14557278	1711.06649575987	1458.51391402144	1	" s"	"23H"	"clock"	"aM"	"vM"	"H"	"c"	"aMvM"	3.50022613783878	1.78915964207891	2.04171222381734	1	"14557278_23HaMvM"	"23H_aM_vM.mp4"	7	"Version5"	"https://gorilla.sc/uploads/schedule/14557278?filename=23HaMvMmp4-39-2.weba"	"Block1"	2	30	"/Users/kechun/Documents/GitHub/PerMaSC/Maskanalysis/questionnaire/child randomizer/data_exp_58325-v5_task-6srq.csv"	16	1	5	"Windows 10"	"Chrome 92.0.4515.107"	"Version5"	10	7	"Male"	"English"	"Born and raised in the UK"	NA	"Yes sometimes"	3	1	"He says he understands his teachers quite well when they wear face masks."	1	2	"Everything worked well"	NA	NA	NA	NA	"A couple of times my child pressed next first instead of saying the word."	"Very enjoyable"	"210719_c47"	"23H"	1458.51391402144	"Children"	"aM"	"vM"	"H"	"Acoustic Mask"	"Visual Mask"	"High Predictability"	"1"	"aMvM"	30	"1"	10.5833333333333	"Male"	"Version5"
"210719_c47"	14557278	1555.02476145108	1316.52760236017	1	"unsure_juiced"	"72H"	"juice"	"aM"	"vM"	"H"	"c"	"aMvM"	3.55700117235671	2.00197641090563	2.24047356999654	1	"14557278_72HaMvM"	"72H_aM_vM.mp4"	7	"Version5"	"https://gorilla.sc/uploads/schedule/14557278?filename=72HaMvMmp4-55-2.weba"	"Block1"	4	44	"/Users/kechun/Documents/GitHub/PerMaSC/Maskanalysis/questionnaire/child randomizer/data_exp_58325-v5_task-6srq.csv"	46	2	5	"Windows 10"	"Chrome 92.0.4515.107"	"Version5"	10	7	"Male"	"English"	"Born and raised in the UK"	NA	"Yes sometimes"	3	1	"He says he understands his teachers quite well when they wear face masks."	1	2	"Everything worked well"	NA	NA	NA	NA	"A couple of times my child pressed next first instead of saying the word."	"Very enjoyable"	"210719_c47"	"72H"	1316.52760236017	"Children"	"aM"	"vM"	"H"	"Acoustic Mask"	"Visual Mask"	"High Predictability"	"1"	"aMvM"	44	"2"	10.5833333333333	"Male"	"Version5"
"210719_c53"	15074698	1033.29368826895	880.857840041741	1	"pre-nasaling"	"12L"	"bread"	"aNM"	"vM"	"L"	"c"	"aNMvM"	2.90093949975224	1.86764581148329	2.0200816597105	1	"15074698_12LaNMvM"	"12L_aNM_vM.mp4"	7	"Version4"	"https://gorilla.sc/uploads/schedule/15074698?filename=12LaNMvMmp4-103-2.weba"	"Block1"	3	90	"/Users/kechun/Documents/GitHub/PerMaSC/Maskanalysis/questionnaire/child randomizer/data_exp_58325-v9_task-gv44.csv"	76	3	9	"Windows 10"	"Edge 92.0.902.67"	"Version4"	11	1	"Male"	"English and another language (bilingual)"	"Born and raised in the UK"	""	"Yes sometimes"	2	2	""	2	1	"Everything worked well"	""	""	""	""	""	""	"210719_c53"	"12L"	880.857840041741	"Children"	"aNM"	"vM"	"L"	"No Acoustic Mask"	"Visual Mask"	"Low Predictability"	"1"	"aNMvM"	90	"3"	11.0833333333333	"Male"	"Version4"
"210719_c53"	15074698	879.845932280059	744.480896048089	1	"pre-nasaling"	"140H"	"van"	"aNM"	"vNM"	"H"	"c"	"aNMvNM"	3.47648417297657	2.59663824069651	2.73200327692848	1	"15074698_140HaNMvNM"	"140H_aNM_vNM.mp4"	7	"Version4"	"https://gorilla.sc/uploads/schedule/15074698?filename=140HaNMvNMmp4-128-2.weba"	"Block1"	4	113	"/Users/kechun/Documents/GitHub/PerMaSC/Maskanalysis/questionnaire/child randomizer/data_exp_58325-v9_task-gv44.csv"	106	4	9	"Windows 10"	"Edge 92.0.902.67"	"Version4"	11	1	"Male"	"English and another language (bilingual)"	"Born and raised in the UK"	""	"Yes sometimes"	2	2	""	2	1	"Everything worked well"	""	""	""	""	""	""	"210719_c53"	"140H"	744.480896048089	"Children"	"aNM"	"vNM"	"H"	"No Acoustic Mask"	"No Visual Mask"	"High Predictability"	"1"	"aNMvNM"	113	"4"	11.0833333333333	"Male"	"Version4"
"210719_c53"	15074698	2335.17558147279	2161.59340683428	1	"pre-nasaling"	"41H"	"dive"	"aM"	"vM"	"H"	"c"	"aMvM"	4.39849595900498	2.06332037753219	2.2369025521707	1	"15074698_41HaMvM"	"41H_aM_vM.mp4"	7	"Version4"	"https://gorilla.sc/uploads/schedule/15074698?filename=41HaMvMmp4-80-2.weba"	"Block1"	3	67	"/Users/kechun/Documents/GitHub/PerMaSC/Maskanalysis/questionnaire/child randomizer/data_exp_58325-v9_task-gv44.csv"	76	3	9	"Windows 10"	"Edge 92.0.902.67"	"Version4"	11	1	"Male"	"English and another language (bilingual)"	"Born and raised in the UK"	""	"Yes sometimes"	2	2	""	2	1	"Everything worked well"	""	""	""	""	""	""	"210719_c53"	"41H"	2161.59340683428	"Children"	"aM"	"vM"	"H"	"Acoustic Mask"	"Visual Mask"	"High Predictability"	"1"	"aMvM"	67	"3"	11.0833333333333	"Male"	"Version4"
"210719_c53"	15074698	931.990402929355	817.459152929335	1	"pre-nasaling"	"59H"	"gown"	"aM"	"vNM"	"H"	"c"	"aMvNM"	2.82671379040787	1.89472338747851	2.00925463747853	1	"15074698_59HaMvNM"	"59H_aM_vNM.mp4"	7	"Version4"	"https://gorilla.sc/uploads/schedule/15074698?filename=59HaMvNMmp4-109-2.weba"	"Block1"	4	94	"/Users/kechun/Documents/GitHub/PerMaSC/Maskanalysis/questionnaire/child randomizer/data_exp_58325-v9_task-gv44.csv"	106	4	9	"Windows 10"	"Edge 92.0.902.67"	"Version4"	11	1	"Male"	"English and another language (bilingual)"	"Born and raised in the UK"	""	"Yes sometimes"	2	2	""	2	1	"Everything worked well"	""	""	""	""	""	""	"210719_c53"	"59H"	817.459152929335	"Children"	"aM"	"vNM"	"H"	"Acoustic Mask"	"No Visual Mask"	"High Predictability"	"1"	"aMvNM"	94	"4"	11.0833333333333	"Male"	"Version4"
"210719_c66"	14758562	167.386487375208	-103.644784554602	1	"OVERLAP"	"119H"	"splash"	"aNM"	"vNM"	"H"	"c"	"aNMvNM"	2.33804814601365	2.17066165863844	2.44169293056825	1	"14758562_119HaNMvNM"	"119H_aNM_vNM.mp4"	7	"Version1"	"https://gorilla.sc/uploads/schedule/14758562?filename=audioFile-107-2.weba"	"Block1"	4	92	"/Users/kechun/Documents/GitHub/PerMaSC/Maskanalysis/questionnaire/child randomizer/data_exp_58325-v9_task-l3g6.csv"	106	4	9	"Windows 10"	"Chrome 92.0.4515.107"	"Version1"	10	5	"Male"	"English"	"Born and raised in the UK"	""	"Yes sometimes"	4	3	""	1	1	"Everything worked well"	""	""	""	""	"NO"	"MY CHILD ENJOID"	"210719_c66"	"119H"	-103.644784554602	"Children"	"aNM"	"vNM"	"H"	"No Acoustic Mask"	"No Visual Mask"	"High Predictability"	"1"	"aNMvNM"	92	"4"	10.4166666666667	"Male"	"Version1"
"210719_c66"	14758562	558.142550124866	162.840011865656	1	"unclear overlap with noise"	"120H"	"sponge"	"aM"	"vM"	"H"	"c"	"aMvM"	2.75862638030046	2.20048383017559	2.5957863684348	1	"14758562_120HaMvM"	"120H_aM_vM.mp4"	7	"Version1"	"https://gorilla.sc/uploads/schedule/14758562?filename=audioFile-63-2.weba"	"Block1"	2	52	"/Users/kechun/Documents/GitHub/PerMaSC/Maskanalysis/questionnaire/child randomizer/data_exp_58325-v9_task-l3g6.csv"	46	2	9	"Windows 10"	"Chrome 92.0.4515.107"	"Version1"	10	5	"Male"	"English"	"Born and raised in the UK"	""	"Yes sometimes"	4	3	""	1	1	"Everything worked well"	""	""	""	""	"NO"	"MY CHILD ENJOID"	"210719_c66"	"120H"	162.840011865656	"Children"	"aM"	"vM"	"H"	"Acoustic Mask"	"Visual Mask"	"High Predictability"	"1"	"aMvM"	52	"2"	10.4166666666667	"Male"	"Version1"
"210719_c71"	14549435	867.589626638003	744.720473412213	1	"unsure_"	"128L"	"swan"	"aNM"	"vM"	"L"	"c"	"aNMvM"	2.73609715152902	1.86850752489102	1.99137667811681	1	"14549435_128LaNMvM"	"128L_aNM_vM.mp4"	7	"Version5"	"https://gorilla.sc/uploads/schedule/14549435?filename=128LaNMvMmp4-19-2.weba"	"Block1"	2	10	"/Users/kechun/Documents/GitHub/PerMaSC/Maskanalysis/questionnaire/child randomizer/data_exp_58325-v5_task-6srq.csv"	16	1	5	"Chromium OS 13904.77.0"	"Chrome 91.0.4472.147"	"Version5"	11	3	"Female"	"English and another language (bilingual)"	"Born and raised in the UK"	NA	"No"	2	3	"She can hear well but because of the face mask blocking direct speech coming through, it's easy to find that normal speech as become muffled and difficult to hear. It makes listening a harder task."	2	1	"Everything worked well"	NA	NA	NA	NA	"N/A"	"It was done well and efficiently, and both me and my daughter enjoyed it. In the future, if there are any online research opportunities like this, we'd be interested to take part!"	"210719_c71"	"128L"	744.720473412213	"Children"	"aNM"	"vM"	"L"	"No Acoustic Mask"	"Visual Mask"	"Low Predictability"	"1"	"aNMvM"	10	"1"	11.25	"Female"	"Version5"
"210725_a120"	14668484	976.741110874902	722.289957079712	1	"glotalized t"	"19H"	"chat"	"aNM"	"vM"	"H"	"a"	"aNMvM"	3.02956044779877	2.05281933692387	2.30727049071906	1	"14668484_19HaNMvM"	"19H_aNM_vM.mp4"	7	"Version4"	"https://gorilla.sc/uploads/schedule/14668484?filename=19HaNMvMmp4-13-2.weba"	"Block1"	1	4	"/Users/kechun/Documents/GitHub/PerMaSC/Maskanalysis/questionnaire/adult randomizer/data_exp_58324-v9_task-7xnq.csv"	16	1	9	"Windows 10"	"Chrome 92.0.4515.107"	"Version4"	20	9	"Male"	"English"	"Born and raised in the UK"	""	"Yes sometimes"	3	3	""	3	2	""	"There were issues with the videos"	""	""	""	"Around 3 videos lagged whilst playing"	""	"210725_a120"	"19H"	722.289957079712	"Adults"	"aNM"	"vM"	"H"	"No Acoustic Mask"	"Visual Mask"	"High Predictability"	"1"	"aNMvM"	4	"1"	20.75	"Male"	"Version4"
"210725_a156"	14930256	529.172144592766	449.631966021336	1	"including pre-nasalisation"	"3H"	"bay"	"aM"	"vM"	"H"	"a"	"aMvM"	2.5021707869162	1.97299864232343	2.05253882089486	1	"14930256_3HaMvM"	"3H_aM_vM.mp4"	7	"Version8"	"https://gorilla.sc/uploads/schedule/14930256?filename=3HaMvMmp4-43-2.weba"	"Block1"	2	32	"/Users/kechun/Documents/GitHub/PerMaSC/Maskanalysis/questionnaire/adult randomizer/data_exp_58324-v9_task-fbmh.csv"	44	2	9	"Windows 10"	"Chrome 92.0.4515.131"	"Version8"	27	6	"Male"	"English"	"Born and raised in the UK"	""	"No"	2	1	"Usually I can understand others without any issue but some have struggled to understand me while I've worn a mask"	2	2	"Everything worked well"	""	""	""	""	""	""	"210725_a156"	"3H"	449.631966021336	"Adults"	"aM"	"vM"	"H"	"Acoustic Mask"	"Visual Mask"	"High Predictability"	"1"	"aMvM"	32	"2"	27.5	"Male"	"Version8"
"210725_a156"	14930256	914.770497829867	600.016179435837	1	"including pre-nasalisation"	"40H"	"ditch"	"aM"	"vM"	"H"	"a"	"aMvM"	2.72786932236929	1.81309882453942	2.12785314293345	1	"14930256_40HaMvM"	"40H_aM_vM.mp4"	7	"Version8"	"https://gorilla.sc/uploads/schedule/14930256?filename=40HaMvMmp4-64-2.weba"	"Block1"	2	51	"/Users/kechun/Documents/GitHub/PerMaSC/Maskanalysis/questionnaire/adult randomizer/data_exp_58324-v9_task-fbmh.csv"	44	2	9	"Windows 10"	"Chrome 92.0.4515.131"	"Version8"	27	6	"Male"	"English"	"Born and raised in the UK"	""	"No"	2	1	"Usually I can understand others without any issue but some have struggled to understand me while I've worn a mask"	2	2	"Everything worked well"	""	""	""	""	""	""	"210725_a156"	"40H"	600.016179435837	"Adults"	"aM"	"vM"	"H"	"Acoustic Mask"	"Visual Mask"	"High Predictability"	"1"	"aMvM"	51	"2"	27.5	"Male"	"Version8"
"210725_a165"	14947964	520.968288335526	320.009128282636	1	"sounds like 'hize' or 'hithe'."	"68H"	"hive"	"aM"	"vM"	"H"	"a"	"aMvM"	2.75513587025009	2.23416758191456	2.43512674196745	1	"14947964_68HaMvM"	"68H_aM_vM.mp4"	7	"Version5"	"https://gorilla.sc/uploads/schedule/14947964?filename=68HaMvMmp4-124-2.weba"	"Block1"	3	109	"/Users/kechun/Documents/GitHub/PerMaSC/Maskanalysis/questionnaire/adult randomizer/data_exp_58324-v9_task-klg9.csv"	106	4	9	"Chromium OS 13904.97.0"	"Chrome 91.0.4472.167"	"Version5"	24	5	"Female"	"English"	"Born and raised in the UK"	""	"No"	2	3	"If I'm talking to someone with a face mask for a long period (more than 30 mins), it can sometimes be a bit strenuous"	1	1	"Everything worked well"	""	""	""	""	"there was one video that took a little while to load, but everything was fine for the rest of the time"	""	"210725_a165"	"68H"	320.009128282636	"Adults"	"aM"	"vM"	"H"	"Acoustic Mask"	"Visual Mask"	"High Predictability"	"1"	"aMvM"	109	"4"	24.4166666666667	"Female"	"Version5"
"210725_a176"	15219350	815.439363077333	678.577817938473	1	"but appears unsure"	"60L"	"grin"	"aM"	"vNM"	"L"	"a"	"aMvNM"	3.0685750149764	2.25313565189907	2.38999719703793	1	"15219350_60LaMvNM"	"60L_aM_vNM.mp4"	7	"Version7"	"https://gorilla.sc/uploads/schedule/15219350?filename=60LaMvNMmp4-54-2.weba"	"Block1"	1	43	"/Users/kechun/Documents/GitHub/PerMaSC/Maskanalysis/questionnaire/adult randomizer/data_exp_58324-v9_task-tmfe.csv"	46	2	9	"Windows 10"	"Chrome 92.0.4515.159"	"Version7"	20	8	"Female"	"English"	"Born and raised in the UK"	""	"No"	2	1	"Hasn't been a huge issue. Sometimes hard to understand in loud spaces"	1	1	"Everything worked well"	""	""	""	""	""	""	"210725_a176"	"60L"	678.577817938473	"Adults"	"aM"	"vNM"	"L"	"Acoustic Mask"	"No Visual Mask"	"Low Predictability"	"1"	"aMvNM"	43	"2"	20.6666666666667	"Female"	"Version7"
"210725_a176"	15219350	727.600602114588	560.458928930758	1	"appears unsure"	"64L"	"hen"	"aM"	"vNM"	"L"	"a"	"aMvNM"	2.85444470040102	2.12684409828643	2.29398577147026	1	"15219350_64LaMvNM"	"64L_aM_vNM.mp4"	7	"Version7"	"https://gorilla.sc/uploads/schedule/15219350?filename=64LaMvNMmp4-111-2.weba"	"Block1"	2	96	"/Users/kechun/Documents/GitHub/PerMaSC/Maskanalysis/questionnaire/adult randomizer/data_exp_58324-v9_task-tmfe.csv"	106	4	9	"Windows 10"	"Chrome 92.0.4515.159"	"Version7"	20	8	"Female"	"English"	"Born and raised in the UK"	""	"No"	2	1	"Hasn't been a huge issue. Sometimes hard to understand in loud spaces"	1	1	"Everything worked well"	""	""	""	""	""	""	"210725_a176"	"64L"	560.458928930758	"Adults"	"aM"	"vNM"	"L"	"Acoustic Mask"	"No Visual Mask"	"Low Predictability"	"1"	"aMvNM"	96	"4"	20.6666666666667	"Female"	"Version7"
"210725_a185"	15129350	1859.52572517294	1735.56391961739	1	"unsure - rising tone"	"60H"	"grin"	"aM"	"vNM"	"H"	"a"	"aMvNM"	4.21181231419439	2.35228658902145	2.476248394577	1	"15129350_60HaMvNM"	"60H_aM_vNM.mp4"	7	"Version3"	"https://gorilla.sc/uploads/schedule/15129350?filename=60HaMvNMmp4-69-2.weba"	"Block1"	1	58	"/Users/kechun/Documents/GitHub/PerMaSC/Maskanalysis/questionnaire/adult randomizer/data_exp_58324-v9_task-75wy.csv"	46	2	9	"Mac OS 10.15.6"	"Chrome 91.0.4472.106"	"Version3"	26	7	"Female"	"English and another language (bilingual)"	"Born and raised in the UK"	""	"Yes sometimes"	3	1	"Difficulty understanding others who wear face masks depends on the environment (noisy/quiet) as well as the pitch of the person speaking."	2	2	"Everything worked well"	""	""	""	""	""	""	"210725_a185"	"60H"	1735.56391961739	"Adults"	"aM"	"vNM"	"H"	"Acoustic Mask"	"No Visual Mask"	"High Predictability"	"1"	"aMvNM"	58	"2"	26.5833333333333	"Female"	"Version3"
"210725_a185"	15129350	1042.36126576947	903.222219766429	1	"unsure - rising tone"	"96L"	"pile"	"aM"	"vM"	"L"	"a"	"aMvM"	3.15666631416454	2.11430504839507	2.25344409439811	1	"15129350_96LaMvM"	"96L_aM_vM.mp4"	7	"Version3"	"https://gorilla.sc/uploads/schedule/15129350?filename=96LaMvMmp4-74-2.weba"	"Block1"	2	61	"/Users/kechun/Documents/GitHub/PerMaSC/Maskanalysis/questionnaire/adult randomizer/data_exp_58324-v9_task-75wy.csv"	76	3	9	"Mac OS 10.15.6"	"Chrome 91.0.4472.106"	"Version3"	26	7	"Female"	"English and another language (bilingual)"	"Born and raised in the UK"	""	"Yes sometimes"	3	1	"Difficulty understanding others who wear face masks depends on the environment (noisy/quiet) as well as the pitch of the person speaking."	2	2	"Everything worked well"	""	""	""	""	""	""	"210725_a185"	"96L"	903.222219766429	"Adults"	"aM"	"vM"	"L"	"Acoustic Mask"	"Visual Mask"	"Low Predictability"	"1"	"aMvM"	61	"3"	26.5833333333333	"Female"	"Version3"
"210725_a185"	15129350	842.1770933171	710.54356521984	1	"unsure - rising tone"	"98L"	"pine"	"aNM"	"vNM"	"L"	"a"	"aNMvNM"	2.73236898329003	1.89019188997293	2.02182541807019	1	"15129350_98LaNMvNM"	"98L_aNM_vNM.mp4"	7	"Version3"	"https://gorilla.sc/uploads/schedule/15129350?filename=98LaNMvNMmp4-67-2.weba"	"Block1"	1	56	"/Users/kechun/Documents/GitHub/PerMaSC/Maskanalysis/questionnaire/adult randomizer/data_exp_58324-v9_task-75wy.csv"	46	2	9	"Mac OS 10.15.6"	"Chrome 91.0.4472.106"	"Version3"	26	7	"Female"	"English and another language (bilingual)"	"Born and raised in the UK"	""	"Yes sometimes"	3	1	"Difficulty understanding others who wear face masks depends on the environment (noisy/quiet) as well as the pitch of the person speaking."	2	2	"Everything worked well"	""	""	""	""	""	""	"210725_a185"	"98L"	710.54356521984	"Adults"	"aNM"	"vNM"	"L"	"No Acoustic Mask"	"No Visual Mask"	"Low Predictability"	"1"	"aNMvNM"	56	"2"	26.5833333333333	"Female"	"Version3"
"210725_a83"	14570364	625.034837089302	489.669800857332	1	"v is not fully voiced "	"140H"	"van"	"aNM"	"vM"	"H"	"a"	"aNMvM"	3.22167307778581	2.59663824069651	2.73200327692848	1	"14570364_140HaNMvM"	"140H_aNM_vM.mp4"	7	"Version7"	"https://gorilla.sc/uploads/schedule/14570364?filename=140HaNMvMmp4-131-2.weba"	"Block1"	4	116	"/Users/kechun/Documents/GitHub/PerMaSC/Maskanalysis/questionnaire/adult randomizer/data_exp_58324-v8_task-tmfe.csv"	106	4	8	"Windows 10"	"Chrome 91.0.4472.164"	"Version7"	23	7	"Female"	"English and another language (bilingual)"	"Raised in the UK from this age (please specify):"	"5"	"Yes sometimes"	2	3	""	2	3	""	""	NA	"There were issues with the voice recordings"	NA	"I think sometimes the video was slow but the audio was working normally so there was a mismatch between lips and sound but this didn't affect me per say."	""	"210725_a83"	"140H"	489.669800857332	"Adults"	"aNM"	"vM"	"H"	"No Acoustic Mask"	"Visual Mask"	"High Predictability"	"1"	"aNMvM"	116	"4"	23.5833333333333	"Female"	"Version7"
"210725_a83"	14570364	1295.27753402378	1150.97084521923	1	"do not know if /b/ is make into a fricative or it was just the noise from the equipment (pre-nasalisation involved)"	"15L"	"bruise"	"aM"	"vM"	"L"	"a"	"aMvM"	3.41955215046336	2.12427461643958	2.26858130524413	1	"14570364_15LaMvM"	"15L_aM_vM.mp4"	7	"Version7"	"https://gorilla.sc/uploads/schedule/14570364?filename=15LaMvMmp4-56-2.weba"	"Block1"	1	45	"/Users/kechun/Documents/GitHub/PerMaSC/Maskanalysis/questionnaire/adult randomizer/data_exp_58324-v8_task-tmfe.csv"	46	2	8	"Windows 10"	"Chrome 91.0.4472.164"	"Version7"	23	7	"Female"	"English and another language (bilingual)"	"Raised in the UK from this age (please specify):"	"5"	"Yes sometimes"	2	3	""	2	3	""	""	NA	"There were issues with the voice recordings"	NA	"I think sometimes the video was slow but the audio was working normally so there was a mismatch between lips and sound but this didn't affect me per say."	""	"210725_a83"	"15L"	1150.97084521923	"Adults"	"aM"	"vM"	"L"	"Acoustic Mask"	"Visual Mask"	"Low Predictability"	"1"	"aMvM"	45	"2"	23.5833333333333	"Female"	"Version7"
"210725_a83"	14570364	1867.90458539609	1665.54514275536	1	"clock"	"21H"	"clerk"	"aM"	"vM"	"H"	"a"	"aMvM"	4.45797938029166	2.59007479489557	2.7924342375363	1	"14570364_21HaMvM"	"21H_aM_vM.mp4"	7	"Version7"	"https://gorilla.sc/uploads/schedule/14570364?filename=21HaMvMmp4-22-2.weba"	"Block1"	3	13	"/Users/kechun/Documents/GitHub/PerMaSC/Maskanalysis/questionnaire/adult randomizer/data_exp_58324-v8_task-tmfe.csv"	16	1	8	"Windows 10"	"Chrome 91.0.4472.164"	"Version7"	23	7	"Female"	"English and another language (bilingual)"	"Raised in the UK from this age (please specify):"	"5"	"Yes sometimes"	2	3	""	2	3	""	""	NA	"There were issues with the voice recordings"	NA	"I think sometimes the video was slow but the audio was working normally so there was a mismatch between lips and sound but this didn't affect me per say."	""	"210725_a83"	"21H"	1665.54514275536	"Adults"	"aM"	"vM"	"H"	"Acoustic Mask"	"Visual Mask"	"High Predictability"	"1"	"aMvM"	13	"1"	23.5833333333333	"Female"	"Version7"
"210725_a83"	14570364	811.105332771791	701.034662837151	1	"pre-nasalisation"	"2H"	"barn"	"aM"	"vNM"	"H"	"a"	"aMvNM"	2.75761560297167	1.94651027019988	2.05658094013452	1	"14570364_2HaMvNM"	"2H_aM_vNM.mp4"	7	"Version7"	"https://gorilla.sc/uploads/schedule/14570364?filename=2HaMvNMmp4-51-2.weba"	"Block1"	1	40	"/Users/kechun/Documents/GitHub/PerMaSC/Maskanalysis/questionnaire/adult randomizer/data_exp_58324-v8_task-tmfe.csv"	46	2	8	"Windows 10"	"Chrome 91.0.4472.164"	"Version7"	23	7	"Female"	"English and another language (bilingual)"	"Raised in the UK from this age (please specify):"	"5"	"Yes sometimes"	2	3	""	2	3	""	""	NA	"There were issues with the voice recordings"	NA	"I think sometimes the video was slow but the audio was working normally so there was a mismatch between lips and sound but this didn't affect me per say."	""	"210725_a83"	"2H"	701.034662837151	"Adults"	"aM"	"vNM"	"H"	"Acoustic Mask"	"No Visual Mask"	"High Predictability"	"1"	"aMvNM"	40	"2"	23.5833333333333	"Female"	"Version7"
"210725_a83"	14570364	1045.13772854363	967.560557490958	1	"correct but strange"	"42L"	"doll"	"aNM"	"vNM"	"L"	"a"	"aNMvNM"	3.01595078775721	1.97081305921358	2.04839023026625	1	"14570364_42LaNMvNM"	"42L_aNM_vNM.mp4"	7	"Version7"	"https://gorilla.sc/uploads/schedule/14570364?filename=42LaNMvNMmp4-116-2.weba"	"Block1"	4	101	"/Users/kechun/Documents/GitHub/PerMaSC/Maskanalysis/questionnaire/adult randomizer/data_exp_58324-v8_task-tmfe.csv"	106	4	8	"Windows 10"	"Chrome 91.0.4472.164"	"Version7"	23	7	"Female"	"English and another language (bilingual)"	"Raised in the UK from this age (please specify):"	"5"	"Yes sometimes"	2	3	""	2	3	""	""	NA	"There were issues with the voice recordings"	NA	"I think sometimes the video was slow but the audio was working normally so there was a mismatch between lips and sound but this didn't affect me per say."	""	"210725_a83"	"42L"	967.560557490958	"Adults"	"aNM"	"vNM"	"L"	"No Acoustic Mask"	"No Visual Mask"	"Low Predictability"	"1"	"aNMvNM"	101	"4"	23.5833333333333	"Female"	"Version7"
"210725_a83"	14570364	1333.99916067281	1182.09986631796	1	"pre-nasalisation"	"58L"	"goal"	"aNM"	"vNM"	"L"	"a"	"aNMvNM"	3.29525272012443	1.96125355945162	2.11315285380647	1	"14570364_58LaNMvNM"	"58L_aNM_vNM.mp4"	7	"Version7"	"https://gorilla.sc/uploads/schedule/14570364?filename=58LaNMvNMmp4-99-2.weba"	"Block1"	2	86	"/Users/kechun/Documents/GitHub/PerMaSC/Maskanalysis/questionnaire/adult randomizer/data_exp_58324-v8_task-tmfe.csv"	76	3	8	"Windows 10"	"Chrome 91.0.4472.164"	"Version7"	23	7	"Female"	"English and another language (bilingual)"	"Raised in the UK from this age (please specify):"	"5"	"Yes sometimes"	2	3	""	2	3	""	""	NA	"There were issues with the voice recordings"	NA	"I think sometimes the video was slow but the audio was working normally so there was a mismatch between lips and sound but this didn't affect me per say."	""	"210725_a83"	"58L"	1182.09986631796	"Adults"	"aNM"	"vNM"	"L"	"No Acoustic Mask"	"No Visual Mask"	"Low Predictability"	"1"	"aNMvNM"	86	"3"	23.5833333333333	"Female"	"Version7"
"210725_a83"	14570364	942.099321671108	671.770925312518	1	"prevoicing"	"72L"	"juice"	"aM"	"vNM"	"L"	"a"	"aMvNM"	3.09644504695378	2.15434572528267	2.42467412164126	1	"14570364_72LaMvNM"	"72L_aM_vNM.mp4"	7	"Version7"	"https://gorilla.sc/uploads/schedule/14570364?filename=72LaMvNMmp4-113-2.weba"	"Block1"	4	98	"/Users/kechun/Documents/GitHub/PerMaSC/Maskanalysis/questionnaire/adult randomizer/data_exp_58324-v8_task-tmfe.csv"	106	4	8	"Windows 10"	"Chrome 91.0.4472.164"	"Version7"	23	7	"Female"	"English and another language (bilingual)"	"Raised in the UK from this age (please specify):"	"5"	"Yes sometimes"	2	3	""	2	3	""	""	NA	"There were issues with the voice recordings"	NA	"I think sometimes the video was slow but the audio was working normally so there was a mismatch between lips and sound but this didn't affect me per say."	""	"210725_a83"	"72L"	671.770925312518	"Adults"	"aM"	"vNM"	"L"	"Acoustic Mask"	"No Visual Mask"	"Low Predictability"	"1"	"aMvNM"	98	"4"	23.5833333333333	"Female"	"Version7"
"210725_a83"	14570364	800.802312110064	520.452222504324	1	"prevoicing"	"73H"	"junk"	"aNM"	"vM"	"H"	"a"	"aNMvM"	3.09316425048216	2.2923619383721	2.57271202797784	1	"14570364_73HaNMvM"	"73H_aNM_vM.mp4"	7	"Version7"	"https://gorilla.sc/uploads/schedule/14570364?filename=73HaNMvMmp4-55-2.weba"	"Block1"	1	44	"/Users/kechun/Documents/GitHub/PerMaSC/Maskanalysis/questionnaire/adult randomizer/data_exp_58324-v8_task-tmfe.csv"	46	2	8	"Windows 10"	"Chrome 91.0.4472.164"	"Version7"	23	7	"Female"	"English and another language (bilingual)"	"Raised in the UK from this age (please specify):"	"5"	"Yes sometimes"	2	3	""	2	3	""	""	NA	"There were issues with the voice recordings"	NA	"I think sometimes the video was slow but the audio was working normally so there was a mismatch between lips and sound but this didn't affect me per say."	""	"210725_a83"	"73H"	520.452222504324	"Adults"	"aNM"	"vM"	"H"	"No Acoustic Mask"	"Visual Mask"	"High Predictability"	"1"	"aNMvM"	44	"2"	23.5833333333333	"Female"	"Version7"
"210725_c122"	15102120	535.861694570391	362.906833459211	1	"unsure_rising"	"114H"	"silk"	"aM"	"vM"	"H"	"c"	"aMvM"	2.43386264880339	1.898000954233	2.07095581534418	1	"15102120_114HaMvM"	"114H_aM_vM.mp4"	7	"Version4"	"https://gorilla.sc/uploads/schedule/15102120?filename=114HaMvMmp4-17-2.weba"	"Block1"	2	8	"/Users/kechun/Documents/GitHub/PerMaSC/Maskanalysis/questionnaire/child randomizer/data_exp_58325-v9_task-gv44.csv"	16	1	9	"Windows 10"	"Chrome 92.0.4515.131"	"Version4"	11	0	"Female"	"English"	"Born and raised in the UK"	""	"Yes sometimes"	2	2	""	3	2	"Everything worked well"	""	""	""	""	""	"It was quite long"	"210725_c122"	"114H"	362.906833459211	"Children"	"aM"	"vM"	"H"	"Acoustic Mask"	"Visual Mask"	"High Predictability"	"1"	"aMvM"	8	"1"	11	"Female"	"Version4"
"210725_c122"	15102120	1565.3446131742	1448.22327308412	1	"unsure_"	"58L"	"goal"	"aM"	"vNM"	"L"	"c"	"aMvNM"	3.51921530533019	1.95387069215599	2.07099203224607	1	"15102120_58LaMvNM"	"58L_aM_vNM.mp4"	7	"Version4"	"https://gorilla.sc/uploads/schedule/15102120?filename=58LaMvNMmp4-36-2.weba"	"Block1"	2	27	"/Users/kechun/Documents/GitHub/PerMaSC/Maskanalysis/questionnaire/child randomizer/data_exp_58325-v9_task-gv44.csv"	16	1	9	"Windows 10"	"Chrome 92.0.4515.131"	"Version4"	11	0	"Female"	"English"	"Born and raised in the UK"	""	"Yes sometimes"	2	2	""	3	2	"Everything worked well"	""	""	""	""	""	"It was quite long"	"210725_c122"	"58L"	1448.22327308412	"Children"	"aM"	"vNM"	"L"	"Acoustic Mask"	"No Visual Mask"	"Low Predictability"	"1"	"aMvNM"	27	"1"	11	"Female"	"Version4"
"210725_c130"	15367679	1830.33789031564	1722.23391443041	1	"don't know"	"50L"	"flame"	"aM"	"vNM"	"L"	"c"	"aMvNM"	4.18099345149992	2.35065556118428	2.45875953706951	1	"15367679_50LaMvNM"	"50L_aM_vNM.mp4"	7	"Version4"	"https://gorilla.sc/uploads/schedule/15367679?filename=50LaMvNMmp4-89-2.weba"	"Block1"	1	76	"/Users/kechun/Documents/GitHub/PerMaSC/Maskanalysis/questionnaire/child randomizer/data_exp_58325-v9_task-gv44.csv"	76	3	9	"Windows 10"	"Chrome 92.0.4515.131"	"Version4"	11	3	"Male"	"English"	"Born and raised in the UK"	""	"No"	1	1	""	2	1	"Everything worked well"	""	""	""	""	"none"	"no"	"210725_c130"	"50L"	1722.23391443041	"Children"	"aM"	"vNM"	"L"	"Acoustic Mask"	"No Visual Mask"	"Low Predictability"	"1"	"aMvNM"	76	"3"	11.25	"Male"	"Version4"
"210725_c130"	15367679	3001.79642767119	2769.49075134274	1	"donnot know"	"88L"	"mouse"	"aM"	"vNM"	"L"	"c"	"aMvNM"	5.3880460109969	2.38624958332571	2.61855525965416	1	"15367679_88LaMvNM"	"88L_aM_vNM.mp4"	7	"Version4"	"https://gorilla.sc/uploads/schedule/15367679?filename=88LaMvNMmp4-88-2.weba"	"Block1"	1	75	"/Users/kechun/Documents/GitHub/PerMaSC/Maskanalysis/questionnaire/child randomizer/data_exp_58325-v9_task-gv44.csv"	76	3	9	"Windows 10"	"Chrome 92.0.4515.131"	"Version4"	11	3	"Male"	"English"	"Born and raised in the UK"	""	"No"	1	1	""	2	1	"Everything worked well"	""	""	""	""	"none"	"no"	"210725_c130"	"88L"	2769.49075134274	"Children"	"aM"	"vNM"	"L"	"Acoustic Mask"	"No Visual Mask"	"Low Predictability"	"1"	"aMvNM"	75	"3"	11.25	"Male"	"Version4"
"210725_c135"	15571068	253.927099321945	-36.6848506192552	1	"unsure_"	"103H"	"raft"	"aNM"	"vM"	"H"	"c"	"aNMvM"	3.12953526414335	2.87560816482141	3.16622011476261	1	"15571068_103HaNMvM"	"103H_aNM_vM.mp4"	7	"Version5"	"https://gorilla.sc/uploads/schedule/15571068?filename=103HaNMvMmp4-86-2.weba"	"Block1"	2	73	"/Users/kechun/Documents/GitHub/PerMaSC/Maskanalysis/questionnaire/child randomizer/data_exp_58325-v9_task-jhw4.csv"	76	3	9	"Windows 10"	"Chrome 92.0.4515.159"	"Version5"	10	0	"Male"	"English"	"Born and raised in the UK"	""	"Yes sometimes"	3	4	""	2	2	"Everything worked well"	""	""	""	""	""	""	"210725_c135"	"103H"	-36.6848506192552	"Children"	"aNM"	"vM"	"H"	"No Acoustic Mask"	"Visual Mask"	"High Predictability"	"1"	"aNMvM"	73	"3"	10	"Male"	"Version5"
"210725_c135"	15571068	208.41323039751	-25.7964812536402	1	"discard_cannot figure out the onset"	"131L"	"thief"	"aNM"	"vNM"	"L"	"c"	"aNMvNM"	2.45180271228746	2.24338948188995	2.4775991935411	1	"15571068_131LaNMvNM"	"131L_aNM_vNM.mp4"	7	"Version5"	"https://gorilla.sc/uploads/schedule/15571068?filename=131LaNMvNMmp4-91-2.weba"	"Block1"	2	78	"/Users/kechun/Documents/GitHub/PerMaSC/Maskanalysis/questionnaire/child randomizer/data_exp_58325-v9_task-jhw4.csv"	76	3	9	"Windows 10"	"Chrome 92.0.4515.159"	"Version5"	10	0	"Male"	"English"	"Born and raised in the UK"	""	"Yes sometimes"	3	4	""	2	2	"Everything worked well"	""	""	""	""	""	""	"210725_c135"	"131L"	-25.7964812536402	"Children"	"aNM"	"vNM"	"L"	"No Acoustic Mask"	"No Visual Mask"	"Low Predictability"	"1"	"aNMvNM"	78	"3"	10	"Male"	"Version5"
"210725_c76"	14745223	2907.35861388216	2565.87745068773	1	"unsure_I think the answer was right, but was not fully recorded"	"82H"	"lungs"	"aM"	"vNM"	"H"	"c"	"aMvNM"	5.49295689373437	2.58559827985221	2.92707944304664	1	"14745223_82HaMvNM"	"82H_aM_vNM.mp4"	7	"Version2"	"https://gorilla.sc/uploads/schedule/14745223?filename=audioFile-110-2.weba"	"Block1"	3	95	"/Users/kechun/Documents/GitHub/PerMaSC/Maskanalysis/questionnaire/child randomizer/data_exp_58325-v9_task-tucf.csv"	106	4	9	"Mac OS 10.13.6"	"Chrome 91.0.4472.101"	"Version2"	10	5	"Female"	"English"	"Born and raised in the UK"	""	"No"	2	2	""	2	2	"Everything worked well"	""	""	""	""	""	""	"210725_c76"	"82H"	2565.87745068773	"Children"	"aM"	"vNM"	"H"	"Acoustic Mask"	"No Visual Mask"	"High Predictability"	"1"	"aMvNM"	95	"4"	10.4166666666667	"Female"	"Version2"
"210725_c81"	14745923	1256.89145369324	1177.35127512181	1	"pre-nasaling"	"3H"	"bay"	"aM"	"vM"	"H"	"c"	"aMvM"	3.22989009601667	1.97299864232343	2.05253882089486	1	"14745923_3HaMvM"	"3H_aM_vM.mp4"	7	"Version8"	"https://gorilla.sc/uploads/schedule/14745923?filename=audioFile-78-2.weba"	"Block1"	2	65	"/Users/kechun/Documents/GitHub/PerMaSC/Maskanalysis/questionnaire/child randomizer/data_exp_58325-v9_task-u5lv.csv"	76	3	9	"Mac OS 10.13.6"	"Chrome 91.0.4472.101"	"Version8"	11	11	"Male"	"English"	"Born and raised in the UK"	""	"No"	2	1	""	2	2	"Everything worked well"	""	""	""	""	""	""	"210725_c81"	"3H"	1177.35127512181	"Children"	"aM"	"vM"	"H"	"Acoustic Mask"	"Visual Mask"	"High Predictability"	"1"	"aMvM"	65	"3"	11.9166666666667	"Male"	"Version8"
"210725_c81"	14745923	1412.35927048468	1097.60495209064	1	"pre-nasaling"	"40H"	"ditch"	"aM"	"vM"	"H"	"c"	"aMvM"	3.22545809502409	1.81309882453942	2.12785314293345	1	"14745923_40HaMvM"	"40H_aM_vM.mp4"	7	"Version8"	"https://gorilla.sc/uploads/schedule/14745923?filename=audioFile-97-2.weba"	"Block1"	2	84	"/Users/kechun/Documents/GitHub/PerMaSC/Maskanalysis/questionnaire/child randomizer/data_exp_58325-v9_task-u5lv.csv"	76	3	9	"Mac OS 10.13.6"	"Chrome 91.0.4472.101"	"Version8"	11	11	"Male"	"English"	"Born and raised in the UK"	""	"No"	2	1	""	2	2	"Everything worked well"	""	""	""	""	""	""	"210725_c81"	"40H"	1097.60495209064	"Children"	"aM"	"vM"	"H"	"Acoustic Mask"	"Visual Mask"	"High Predictability"	"1"	"aMvM"	84	"3"	11.9166666666667	"Male"	"Version8"
"210725_c81"	14745923	1971.99850081776	1828.64433415111	1	"pre-nasaling"	"46H"	"drug"	"aM"	"vM"	"H"	"c"	"aMvM"	4.26052716616263	2.28852866534487	2.43188283201152	1	"14745923_46HaMvM"	"46H_aM_vM.mp4"	7	"Version8"	"https://gorilla.sc/uploads/schedule/14745923?filename=audioFile-35-2.weba"	"Block1"	3	26	"/Users/kechun/Documents/GitHub/PerMaSC/Maskanalysis/questionnaire/child randomizer/data_exp_58325-v9_task-u5lv.csv"	16	1	9	"Mac OS 10.13.6"	"Chrome 91.0.4472.101"	"Version8"	11	11	"Male"	"English"	"Born and raised in the UK"	""	"No"	2	1	""	2	2	"Everything worked well"	""	""	""	""	""	""	"210725_c81"	"46H"	1828.64433415111	"Children"	"aM"	"vM"	"H"	"Acoustic Mask"	"Visual Mask"	"High Predictability"	"1"	"aMvM"	26	"1"	11.9166666666667	"Male"	"Version8"
"210725_c81"	14745923	1106.75613132315	984.607417805473	1	"pre-nasaling"	"47L"	"drum"	"aNM"	"vNM"	"L"	"c"	"aNMvNM"	3.08519078343738	1.97843465211423	2.10058336563191	1	"14745923_47LaNMvNM"	"47L_aNM_vNM.mp4"	7	"Version8"	"https://gorilla.sc/uploads/schedule/14745923?filename=audioFile-71-2.weba"	"Block1"	4	60	"/Users/kechun/Documents/GitHub/PerMaSC/Maskanalysis/questionnaire/child randomizer/data_exp_58325-v9_task-u5lv.csv"	46	2	9	"Mac OS 10.13.6"	"Chrome 91.0.4472.101"	"Version8"	11	11	"Male"	"English"	"Born and raised in the UK"	""	"No"	2	1	""	2	2	"Everything worked well"	""	""	""	""	""	""	"210725_c81"	"47L"	984.607417805473	"Children"	"aNM"	"vNM"	"L"	"No Acoustic Mask"	"No Visual Mask"	"Low Predictability"	"1"	"aNMvNM"	60	"2"	11.9166666666667	"Male"	"Version8"
"210725_c81"	14745923	1634.27210445539	1479.51875196495	1	"pre-nasaling"	"58H"	"goal"	"aM"	"vNM"	"H"	"c"	"aMvNM"	3.73777172555808	2.10349962110269	2.25825297359313	1	"14745923_58HaMvNM"	"58H_aM_vNM.mp4"	7	"Version8"	"https://gorilla.sc/uploads/schedule/14745923?filename=audioFile-88-2.weba"	"Block1"	2	75	"/Users/kechun/Documents/GitHub/PerMaSC/Maskanalysis/questionnaire/child randomizer/data_exp_58325-v9_task-u5lv.csv"	76	3	9	"Mac OS 10.13.6"	"Chrome 91.0.4472.101"	"Version8"	11	11	"Male"	"English"	"Born and raised in the UK"	""	"No"	2	1	""	2	2	"Everything worked well"	""	""	""	""	""	""	"210725_c81"	"58H"	1479.51875196495	"Children"	"aM"	"vNM"	"H"	"Acoustic Mask"	"No Visual Mask"	"High Predictability"	"1"	"aMvNM"	75	"3"	11.9166666666667	"Male"	"Version8"
"210725_c81"	14745923	1332.06343100008	999.773103619158	1	"pre-nasaling"	"73L"	"junk"	"aNM"	"vM"	"L"	"c"	"aNMvM"	3.42797744507371	2.09591401407363	2.42820434145455	1	"14745923_73LaNMvM"	"73L_aNM_vM.mp4"	7	"Version8"	"https://gorilla.sc/uploads/schedule/14745923?filename=audioFile-110-2.weba"	"Block1"	1	95	"/Users/kechun/Documents/GitHub/PerMaSC/Maskanalysis/questionnaire/child randomizer/data_exp_58325-v9_task-u5lv.csv"	106	4	9	"Mac OS 10.13.6"	"Chrome 91.0.4472.101"	"Version8"	11	11	"Male"	"English"	"Born and raised in the UK"	""	"No"	2	1	""	2	2	"Everything worked well"	""	""	""	""	""	""	"210725_c81"	"73L"	999.773103619158	"Children"	"aNM"	"vM"	"L"	"No Acoustic Mask"	"Visual Mask"	"Low Predictability"	"1"	"aNMvM"	95	"4"	11.9166666666667	"Male"	"Version8"
"210725_c84"	14993977	968.929516738442	704.094640195232	1	"unreleased coda"	"23L"	"clock"	"aNM"	"vM"	"L"	"c"	"aNMvM"	3.20162824848988	2.23269873175144	2.49753360829465	1	"14993977_23LaNMvM"	"23L_aNM_vM.mp4"	7	"Version1"	"https://gorilla.sc/uploads/schedule/14993977?filename=23LaNMvMmp4-71-2.weba"	"Block1"	2	60	"/Users/kechun/Documents/GitHub/PerMaSC/Maskanalysis/questionnaire/child randomizer/data_exp_58325-v9_task-l3g6.csv"	46	2	9	"Mac OS 10.15.7"	"Chrome 92.0.4515.131"	"Version1"	10	9	"Female"	"English"	"Born and raised in the UK"	""	"Yes sometimes"	3	2	""	2	2	"Everything worked well"	""	""	""	""	""	""	"210725_c84"	"23L"	704.094640195232	"Children"	"aNM"	"vM"	"L"	"No Acoustic Mask"	"Visual Mask"	"Low Predictability"	"1"	"aNMvM"	60	"2"	10.75	"Female"	"Version1"
"210725_c86"	14742950	1383.63891204041	1195.62861510555	1	"she sounded unsure"	"114L"	"silk"	"aM"	"vM"	"L"	"c"	"aMvM"	3.3012985548818	1.91765964284139	2.10566993977625	1	"14742950_114LaMvM"	"114L_aM_vM.mp4"	7	"Version7"	"https://gorilla.sc/uploads/schedule/14742950?filename=audioFile-68-2.weba"	"Block1"	2	57	"/Users/kechun/Documents/GitHub/PerMaSC/Maskanalysis/questionnaire/child randomizer/data_exp_58325-v9_task-73fk.csv"	46	2	9	"Chromium OS 13904.97.0"	"Chrome 91.0.4472.167"	"Version7"	11	0	"Female"	"English"	"Born and raised in the UK"	""	"Yes sometimes"	2	3	""	2	3	"Everything worked well"	""	""	""	""	""	""	"210725_c86"	"114L"	1195.62861510555	"Children"	"aM"	"vM"	"L"	"Acoustic Mask"	"Visual Mask"	"Low Predictability"	"1"	"aMvM"	57	"2"	11	"Female"	"Version7"
"210725_c86"	14742950	1028.61003773085	905.740884505055	1	"sounded unsure"	"128L"	"swan"	"aNM"	"vNM"	"L"	"c"	"aNMvNM"	2.89711756262187	1.86850752489102	1.99137667811681	1	"14742950_128LaNMvNM"	"128L_aNM_vNM.mp4"	7	"Version7"	"https://gorilla.sc/uploads/schedule/14742950?filename=audioFile-59-2.weba"	"Block1"	2	48	"/Users/kechun/Documents/GitHub/PerMaSC/Maskanalysis/questionnaire/child randomizer/data_exp_58325-v9_task-73fk.csv"	46	2	9	"Chromium OS 13904.97.0"	"Chrome 91.0.4472.167"	"Version7"	11	0	"Female"	"English"	"Born and raised in the UK"	""	"Yes sometimes"	2	3	""	2	3	"Everything worked well"	""	""	""	""	""	""	"210725_c86"	"128L"	905.740884505055	"Children"	"aNM"	"vNM"	"L"	"No Acoustic Mask"	"No Visual Mask"	"Low Predictability"	"1"	"aNMvNM"	48	"2"	11	"Female"	"Version7"
"210725_c86"	14742950	2094.40797543698	1883.45637014777	1	"sounded unsure"	"37L"	"deck"	"aM"	"vM"	"L"	"c"	"aMvM"	4.26396140324505	2.16955342780807	2.38050503309728	1	"14742950_37LaMvM"	"37L_aM_vM.mp4"	7	"Version7"	"https://gorilla.sc/uploads/schedule/14742950?filename=audioFile-55-2.weba"	"Block1"	2	44	"/Users/kechun/Documents/GitHub/PerMaSC/Maskanalysis/questionnaire/child randomizer/data_exp_58325-v9_task-73fk.csv"	46	2	9	"Chromium OS 13904.97.0"	"Chrome 91.0.4472.167"	"Version7"	11	0	"Female"	"English"	"Born and raised in the UK"	""	"Yes sometimes"	2	3	""	2	3	"Everything worked well"	""	""	""	""	""	""	"210725_c86"	"37L"	1883.45637014777	"Children"	"aM"	"vM"	"L"	"Acoustic Mask"	"Visual Mask"	"Low Predictability"	"1"	"aMvM"	44	"2"	11	"Female"	"Version7"
"210725_c86"	14742950	3840.17941158154	3776.66527467673	1	"sounded unsure"	"41L"	"dive"	"aM"	"vM"	"L"	"c"	"aMvM"	6.4075501455911	2.56737073400956	2.63088487091437	1	"14742950_41LaMvM"	"41L_aM_vM.mp4"	7	"Version7"	"https://gorilla.sc/uploads/schedule/14742950?filename=audioFile-22-2.weba"	"Block1"	3	13	"/Users/kechun/Documents/GitHub/PerMaSC/Maskanalysis/questionnaire/child randomizer/data_exp_58325-v9_task-73fk.csv"	16	1	9	"Chromium OS 13904.97.0"	"Chrome 91.0.4472.167"	"Version7"	11	0	"Female"	"English"	"Born and raised in the UK"	""	"Yes sometimes"	2	3	""	2	3	"Everything worked well"	""	""	""	""	""	""	"210725_c86"	"41L"	3776.66527467673	"Children"	"aM"	"vM"	"L"	"Acoustic Mask"	"Visual Mask"	"Low Predictability"	"1"	"aMvM"	13	"1"	11	"Female"	"Version7"
"210725_c86"	14742950	1379.66789413659	1254.78495011303	1	"but correct herself later to a wrong answer"	"5L"	"beam"	"aNM"	"vNM"	"L"	"c"	"aNMvNM"	3.52322360690877	2.14355571277218	2.26843865679574	1	"14742950_5LaNMvNM"	"5L_aNM_vNM.mp4"	7	"Version7"	"https://gorilla.sc/uploads/schedule/14742950?filename=audioFile-130-2.weba"	"Block1"	4	115	"/Users/kechun/Documents/GitHub/PerMaSC/Maskanalysis/questionnaire/child randomizer/data_exp_58325-v9_task-73fk.csv"	106	4	9	"Chromium OS 13904.97.0"	"Chrome 91.0.4472.167"	"Version7"	11	0	"Female"	"English"	"Born and raised in the UK"	""	"Yes sometimes"	2	3	""	2	3	"Everything worked well"	""	""	""	""	""	""	"210725_c86"	"5L"	1254.78495011303	"Children"	"aNM"	"vNM"	"L"	"No Acoustic Mask"	"No Visual Mask"	"Low Predictability"	"1"	"aNMvNM"	115	"4"	11	"Female"	"Version7"
"210725_c86"	14742950	699.871108369504	394.523191702834	1	"unsure_"	"66H"	"hint"	"aM"	"vM"	"H"	"c"	"aMvM"	2.95689419673334	2.25702308836384	2.56237100503051	1	"14742950_66HaMvM"	"66H_aM_vM.mp4"	7	"Version7"	"https://gorilla.sc/uploads/schedule/14742950?filename=audioFile-109-2.weba"	"Block1"	4	94	"/Users/kechun/Documents/GitHub/PerMaSC/Maskanalysis/questionnaire/child randomizer/data_exp_58325-v9_task-73fk.csv"	106	4	9	"Chromium OS 13904.97.0"	"Chrome 91.0.4472.167"	"Version7"	11	0	"Female"	"English"	"Born and raised in the UK"	""	"Yes sometimes"	2	3	""	2	3	"Everything worked well"	""	""	""	""	""	""	"210725_c86"	"66H"	394.523191702834	"Children"	"aM"	"vM"	"H"	"Acoustic Mask"	"Visual Mask"	"High Predictability"	"1"	"aMvM"	94	"4"	11	"Female"	"Version7"
"210725_c86"	14742950	1269.4819647574	927.660784201919	1	"unsure"	"82L"	"lungs"	"aM"	"vM"	"L"	"c"	"aMvM"	3.90470620975674	2.63522424499934	2.97704542555482	1	"14742950_82LaMvM"	"82L_aM_vM.mp4"	7	"Version7"	"https://gorilla.sc/uploads/schedule/14742950?filename=audioFile-29-2.weba"	"Block1"	3	20	"/Users/kechun/Documents/GitHub/PerMaSC/Maskanalysis/questionnaire/child randomizer/data_exp_58325-v9_task-73fk.csv"	16	1	9	"Chromium OS 13904.97.0"	"Chrome 91.0.4472.167"	"Version7"	11	0	"Female"	"English"	"Born and raised in the UK"	""	"Yes sometimes"	2	3	""	2	3	"Everything worked well"	""	""	""	""	""	""	"210725_c86"	"82L"	927.660784201919	"Children"	"aM"	"vM"	"L"	"Acoustic Mask"	"Visual Mask"	"Low Predictability"	"1"	"aMvM"	20	"1"	11	"Female"	"Version7"
"210823_c177"	15326180	715.176520421066	591.480210897286	1	"Not very sure about the onset time. There was a russling sound of metals before."	"140L"	"van"	"aNM"	"vNM"	"L"	"c"	"aNMvNM"	3.30947033075913	2.59429381033806	2.71799011986184	1	"15326180_140LaNMvNM"	"140L_aNM_vNM.mp4"	7	"Version5"	"https://gorilla.sc/uploads/schedule/15326180?filename=140LaNMvNMmp4-76-2.weba"	"Block1"	4	63	"/Users/kechun/Documents/GitHub/PerMaSC/Maskanalysis/questionnaire/child randomizer/data_exp_58325-v9_task-jhw4.csv"	76	3	9	"Windows 10"	"Chrome 92.0.4515.159"	"Version5"	11	11	"Male"	"English and another language (bilingual)"	"Raised in the UK from this age (please specify):"	"5 Months"	"Yes sometimes"	2	4	"Not very problamatic"	3	1	"Everything worked well"	""	""	""	""	"No"	"No"	"210823_c177"	"140L"	591.480210897286	"Children"	"aNM"	"vNM"	"L"	"No Acoustic Mask"	"No Visual Mask"	"Low Predictability"	"1"	"aNMvNM"	63	"3"	11.9166666666667	"Male"	"Version5"
"210823_c177"	15326180	602.658335044237	522.413295361697	1	"Pre-nasaling"	"14L"	"broom"	"aM"	"vNM"	"L"	"c"	"aMvNM"	3.1493320003317	2.54667366528746	2.62691870497	1	"15326180_14LaMvNM"	"14L_aM_vNM.mp4"	7	"Version5"	"https://gorilla.sc/uploads/schedule/15326180?filename=14LaMvNMmp4-81-2.weba"	"Block1"	4	68	"/Users/kechun/Documents/GitHub/PerMaSC/Maskanalysis/questionnaire/child randomizer/data_exp_58325-v9_task-jhw4.csv"	76	3	9	"Windows 10"	"Chrome 92.0.4515.159"	"Version5"	11	11	"Male"	"English and another language (bilingual)"	"Raised in the UK from this age (please specify):"	"5 Months"	"Yes sometimes"	2	4	"Not very problamatic"	3	1	"Everything worked well"	""	""	""	""	"No"	"No"	"210823_c177"	"14L"	522.413295361697	"Children"	"aM"	"vNM"	"L"	"Acoustic Mask"	"No Visual Mask"	"Low Predictability"	"1"	"aMvNM"	68	"3"	11.9166666666667	"Male"	"Version5"
"210823_c177"	15326180	659.546761885242	367.054296905952	1	"pre-nasaling"	"39L"	"dent"	"aM"	"vM"	"L"	"c"	"aMvM"	2.57000723069582	1.91046046881058	2.20295293378987	1	"15326180_39LaMvM"	"39L_aM_vM.mp4"	7	"Version5"	"https://gorilla.sc/uploads/schedule/15326180?filename=39LaMvMmp4-69-2.weba"	"Block1"	1	58	"/Users/kechun/Documents/GitHub/PerMaSC/Maskanalysis/questionnaire/child randomizer/data_exp_58325-v9_task-jhw4.csv"	46	2	9	"Windows 10"	"Chrome 92.0.4515.159"	"Version5"	11	11	"Male"	"English and another language (bilingual)"	"Raised in the UK from this age (please specify):"	"5 Months"	"Yes sometimes"	2	4	"Not very problamatic"	3	1	"Everything worked well"	""	""	""	""	"No"	"No"	"210823_c177"	"39L"	367.054296905952	"Children"	"aM"	"vM"	"L"	"Acoustic Mask"	"Visual Mask"	"Low Predictability"	"1"	"aMvM"	58	"2"	11.9166666666667	"Male"	"Version5"
"210823_c177"	15326180	813.4404026294	688.55745860584	1	"pre-nasaling"	"5L"	"beam"	"aNM"	"vM"	"L"	"c"	"aNMvM"	2.95699611540158	2.14355571277218	2.26843865679574	1	"15326180_5LaNMvM"	"5L_aNM_vM.mp4"	7	"Version5"	"https://gorilla.sc/uploads/schedule/15326180?filename=5LaNMvMmp4-88-2.weba"	"Block1"	4	75	"/Users/kechun/Documents/GitHub/PerMaSC/Maskanalysis/questionnaire/child randomizer/data_exp_58325-v9_task-jhw4.csv"	76	3	9	"Windows 10"	"Chrome 92.0.4515.159"	"Version5"	11	11	"Male"	"English and another language (bilingual)"	"Raised in the UK from this age (please specify):"	"5 Months"	"Yes sometimes"	2	4	"Not very problamatic"	3	1	"Everything worked well"	""	""	""	""	"No"	"No"	"210823_c177"	"5L"	688.55745860584	"Children"	"aNM"	"vM"	"L"	"No Acoustic Mask"	"Visual Mask"	"Low Predictability"	"1"	"aNMvM"	75	"3"	11.9166666666667	"Male"	"Version5"
"210823_c177"	15326180	546.27720462474	422.31539906919	1	"pre-nasaling"	"60H"	"grin"	"aM"	"vM"	"H"	"c"	"aMvM"	2.89856379364619	2.35228658902145	2.476248394577	1	"15326180_60HaMvM"	"60H_aM_vM.mp4"	7	"Version5"	"https://gorilla.sc/uploads/schedule/15326180?filename=60HaMvMmp4-65-2.weba"	"Block1"	1	54	"/Users/kechun/Documents/GitHub/PerMaSC/Maskanalysis/questionnaire/child randomizer/data_exp_58325-v9_task-jhw4.csv"	46	2	9	"Windows 10"	"Chrome 92.0.4515.159"	"Version5"	11	11	"Male"	"English and another language (bilingual)"	"Raised in the UK from this age (please specify):"	"5 Months"	"Yes sometimes"	2	4	"Not very problamatic"	3	1	"Everything worked well"	""	""	""	""	"No"	"No"	"210823_c177"	"60H"	422.31539906919	"Children"	"aM"	"vM"	"H"	"Acoustic Mask"	"Visual Mask"	"High Predictability"	"1"	"aMvM"	54	"2"	11.9166666666667	"Male"	"Version5"
"210823_c177"	15326180	636.836459972923	398.339300882013	1	"pre-nasaling"	"72H"	"juice"	"aM"	"vM"	"H"	"c"	"aMvM"	2.63881287087855	2.00197641090563	2.24047356999654	1	"15326180_72HaMvM"	"72H_aM_vM.mp4"	7	"Version5"	"https://gorilla.sc/uploads/schedule/15326180?filename=72HaMvMmp4-79-2.weba"	"Block1"	4	66	"/Users/kechun/Documents/GitHub/PerMaSC/Maskanalysis/questionnaire/child randomizer/data_exp_58325-v9_task-jhw4.csv"	76	3	9	"Windows 10"	"Chrome 92.0.4515.159"	"Version5"	11	11	"Male"	"English and another language (bilingual)"	"Raised in the UK from this age (please specify):"	"5 Months"	"Yes sometimes"	2	4	"Not very problamatic"	3	1	"Everything worked well"	""	""	""	""	"No"	"No"	"210823_c177"	"72H"	398.339300882013	"Children"	"aM"	"vM"	"H"	"Acoustic Mask"	"Visual Mask"	"High Predictability"	"1"	"aMvM"	66	"3"	11.9166666666667	"Male"	"Version5"
"210823_c179"	15327645	153.670908542645	-74.1777893739153	1	"unsure_overlap"	"116H"	"sleeves"	"aM"	"vM"	"H"	"c"	"aMvM"	2.47294451818223	2.31927360963959	2.54712230755615	1	"15327645_116HaMvM"	"116H_aM_vM.mp4"	7	"Version1"	"https://gorilla.sc/uploads/schedule/15327645?filename=116HaMvMmp4-19-2.weba"	"Block1"	1	10	"/Users/kechun/Documents/GitHub/PerMaSC/Maskanalysis/questionnaire/child randomizer/data_exp_58325-v9_task-l3g6.csv"	16	1	9	"Mac OS 10.15"	"Firefox 91.0"	"Version1"	11	11	"Female"	"English and another language (bilingual)"	"Raised in the UK from this age (please specify):"	"5"	"I don't know"	3	3	""	3	1	""	"There were issues with the videos"	""	""	""	"The videos did not load until we refreshed the page. This happened 4 times."	"it was fun."	"210823_c179"	"116H"	-74.1777893739153	"Children"	"aM"	"vM"	"H"	"Acoustic Mask"	"Visual Mask"	"High Predictability"	"1"	"aMvM"	10	"1"	11.9166666666667	"Female"	"Version1"
"210823_c179"	15327645	173.823175664115	-90.1386566008347	1	"unsure_overlap"	"117H"	"slice"	"aNM"	"vM"	"H"	"c"	"aNMvM"	2.27684035387031	2.10301717820619	2.36697901047114	1	"15327645_117HaNMvM"	"117H_aNM_vM.mp4"	7	"Version1"	"https://gorilla.sc/uploads/schedule/15327645?filename=117HaNMvMmp4-51-2.weba"	"Block1"	2	40	"/Users/kechun/Documents/GitHub/PerMaSC/Maskanalysis/questionnaire/child randomizer/data_exp_58325-v9_task-l3g6.csv"	46	2	9	"Mac OS 10.15"	"Firefox 91.0"	"Version1"	11	11	"Female"	"English and another language (bilingual)"	"Raised in the UK from this age (please specify):"	"5"	"I don't know"	3	3	""	3	1	""	"There were issues with the videos"	""	""	""	"The videos did not load until we refreshed the page. This happened 4 times."	"it was fun."	"210823_c179"	"117H"	-90.1386566008347	"Children"	"aNM"	"vM"	"H"	"No Acoustic Mask"	"Visual Mask"	"High Predictability"	"1"	"aNMvM"	40	"2"	11.9166666666667	"Female"	"Version1"
"210823_c179"	15327645	347.923996030725	-47.3785422284849	1	"unsure_overlap"	"120H"	"sponge"	"aM"	"vM"	"H"	"c"	"aMvM"	2.54840782620632	2.20048383017559	2.5957863684348	1	"15327645_120HaMvM"	"120H_aM_vM.mp4"	7	"Version1"	"https://gorilla.sc/uploads/schedule/15327645?filename=120HaMvMmp4-63-2.weba"	"Block1"	2	52	"/Users/kechun/Documents/GitHub/PerMaSC/Maskanalysis/questionnaire/child randomizer/data_exp_58325-v9_task-l3g6.csv"	46	2	9	"Mac OS 10.15"	"Firefox 91.0"	"Version1"	11	11	"Female"	"English and another language (bilingual)"	"Raised in the UK from this age (please specify):"	"5"	"I don't know"	3	3	""	3	1	""	"There were issues with the videos"	""	""	""	"The videos did not load until we refreshed the page. This happened 4 times."	"it was fun."	"210823_c179"	"120H"	-47.3785422284849	"Children"	"aM"	"vM"	"H"	"Acoustic Mask"	"Visual Mask"	"High Predictability"	"1"	"aMvM"	52	"2"	11.9166666666667	"Female"	"Version1"
"210823_c179"	15327645	127.740823742897	-84.6728047293328	1	"unsure_overlap"	"68L"	"hive"	"aNM"	"vM"	"L"	"c"	"aNMvM"	2.24485221011287	2.11711138636997	2.3295250148422	1	"15327645_68LaNMvM"	"68L_aNM_vM.mp4"	7	"Version1"	"https://gorilla.sc/uploads/schedule/15327645?filename=68LaNMvMmp4-108-2.weba"	"Block1"	3	93	"/Users/kechun/Documents/GitHub/PerMaSC/Maskanalysis/questionnaire/child randomizer/data_exp_58325-v9_task-l3g6.csv"	106	4	9	"Mac OS 10.15"	"Firefox 91.0"	"Version1"	11	11	"Female"	"English and another language (bilingual)"	"Raised in the UK from this age (please specify):"	"5"	"I don't know"	3	3	""	3	1	""	"There were issues with the videos"	""	""	""	"The videos did not load until we refreshed the page. This happened 4 times."	"it was fun."	"210823_c179"	"68L"	-84.6728047293328	"Children"	"aNM"	"vM"	"L"	"No Acoustic Mask"	"Visual Mask"	"Low Predictability"	"1"	"aNMvM"	93	"4"	11.9166666666667	"Female"	"Version1"
"210823_c179"	15327645	182.693076795341	-75.3241851094488	1	"unsure_overlap"	"85H"	"mat"	"aM"	"vM"	"H"	"c"	"aMvM"	2.52986668607562	2.34717360928028	2.60519087118507	1	"15327645_85HaMvM"	"85H_aM_vM.mp4"	7	"Version1"	"https://gorilla.sc/uploads/schedule/15327645?filename=85HaMvMmp4-45-2.weba"	"Block1"	2	34	"/Users/kechun/Documents/GitHub/PerMaSC/Maskanalysis/questionnaire/child randomizer/data_exp_58325-v9_task-l3g6.csv"	46	2	9	"Mac OS 10.15"	"Firefox 91.0"	"Version1"	11	11	"Female"	"English and another language (bilingual)"	"Raised in the UK from this age (please specify):"	"5"	"I don't know"	3	3	""	3	1	""	"There were issues with the videos"	""	""	""	"The videos did not load until we refreshed the page. This happened 4 times."	"it was fun."	"210823_c179"	"85H"	-75.3241851094488	"Children"	"aM"	"vM"	"H"	"Acoustic Mask"	"Visual Mask"	"High Predictability"	"1"	"aMvM"	34	"2"	11.9166666666667	"Female"	"Version1"
"210823_c179"	15327645	228.994315448573	-4.84611348002728	1	"unsure_overlap"	"88H"	"mouse"	"aNM"	"vNM"	"H"	"c"	"aNMvNM"	2.18856784011592	1.95957352466735	2.19341395359595	1	"15327645_88HaNMvNM"	"88H_aNM_vNM.mp4"	7	"Version1"	"https://gorilla.sc/uploads/schedule/15327645?filename=88HaNMvNMmp4-15-2.weba"	"Block1"	1	6	"/Users/kechun/Documents/GitHub/PerMaSC/Maskanalysis/questionnaire/child randomizer/data_exp_58325-v9_task-l3g6.csv"	16	1	9	"Mac OS 10.15"	"Firefox 91.0"	"Version1"	11	11	"Female"	"English and another language (bilingual)"	"Raised in the UK from this age (please specify):"	"5"	"I don't know"	3	3	""	3	1	""	"There were issues with the videos"	""	""	""	"The videos did not load until we refreshed the page. This happened 4 times."	"it was fun."	"210823_c179"	"88H"	-4.84611348002728	"Children"	"aNM"	"vNM"	"H"	"No Acoustic Mask"	"No Visual Mask"	"High Predictability"	"1"	"aNMvNM"	6	"1"	11.9166666666667	"Female"	"Version1"
"210719_a09"	14867512	714.817436962821	459.728151248471	1	"discard_annette"	"90L"	"net"	"aNM"	"vNM"	"L"	"a"	"aNMvNM"	2.67255713354828	1.95773969658546	2.21282898229981	2	"14867512_90LaNMvNM"	"90L_aNM_vNM.mp4"	7	"Version4"	"https://gorilla.sc/uploads/schedule/14867512?filename=audioFile-19-2.weba"	"Block1"	4	10	"/Users/kechun/Documents/GitHub/PerMaSC/Maskanalysis/questionnaire/adult randomizer/data_exp_58324-v9_task-7xnq.csv"	16	1	9	"Windows 10"	"Chrome 92.0.4515.131"	"Version4"	50	2	"Female"	"English"	"Born and raised in the UK"	""	"Yes sometimes"	3	4	""	2	2	"Everything worked well"	""	""	""	""	""	""	"210719_a09"	"90L"	459.728151248471	"Adults"	"aNM"	"vNM"	"L"	"No Acoustic Mask"	"No Visual Mask"	"Low Predictability"	"1"	"aNMvNM"	10	"1"	50.1666666666667	"Female"	"Version4"
"210719_c08"	15216048	375.611089692055	-21.2291880856954	1	"unsure_overlap"	"120L"	"sponge"	"aM"	"vNM"	"L"	"c"	"aMvNM"	2.31402571355036	1.93841462385831	2.33525490163606	2	"15216048_120LaMvNM"	"120L_aM_vNM.mp4"	7	"Version3"	"https://gorilla.sc/uploads/schedule/15216048?filename=120LaMvNMmp4-64-2.weba"	"Block1"	2	53	"/Users/kechun/Documents/GitHub/PerMaSC/Maskanalysis/questionnaire/child randomizer/data_exp_58325-v9_task-f475.csv"	46	2	9	"Windows 10"	"Chrome 92.0.4515.159"	"Version3"	10	5	"Female"	"English"	"Born and raised in the UK"	""	"No"	3	3	""	2	1	""	""	""	"There were issues with the voice recordings"	""	""	""	"210719_c08"	"120L"	-21.2291880856954	"Children"	"aM"	"vNM"	"L"	"Acoustic Mask"	"No Visual Mask"	"Low Predictability"	"1"	"aMvNM"	53	"2"	10.4166666666667	"Female"	"Version3"
"210719_c08"	15216048	786.432732844209	621.91785189178	1	"unsure_onset hard to determine"	"128H"	"swan"	"aM"	"vM"	"H"	"c"	"aMvM"	2.97285370791893	2.18642097507472	2.35093585602715	2	"15216048_128HaMvM"	"128H_aM_vM.mp4"	7	"Version3"	"https://gorilla.sc/uploads/schedule/15216048?filename=128HaMvMmp4-57-2.weba"	"Block1"	2	46	"/Users/kechun/Documents/GitHub/PerMaSC/Maskanalysis/questionnaire/child randomizer/data_exp_58325-v9_task-f475.csv"	46	2	9	"Windows 10"	"Chrome 92.0.4515.159"	"Version3"	10	5	"Female"	"English"	"Born and raised in the UK"	""	"No"	3	3	""	2	1	""	""	""	"There were issues with the voice recordings"	""	""	""	"210719_c08"	"128H"	621.91785189178	"Children"	"aM"	"vM"	"H"	"Acoustic Mask"	"Visual Mask"	"High Predictability"	"1"	"aMvM"	46	"2"	10.4166666666667	"Female"	"Version3"
"210719_c43"	14729926	820.376081393338	561.468789726658	1	"discard_th too weak to detect"	"131L"	"thief"	"aM"	"vNM"	"L"	"c"	"aMvNM"	3.02108442926752	2.20070834787418	2.45961563954086	2	"14729926_131LaMvNM"	"131L_aM_vNM.mp4"	7	"Version6"	"https://gorilla.sc/uploads/schedule/14729926?filename=audioFile-114-2.weba"	"Block1"	2	99	"/Users/kechun/Documents/GitHub/PerMaSC/Maskanalysis/questionnaire/child randomizer/data_exp_58325-v9_task-9d5m.csv"	106	4	9	"Mac OS 10.15.6"	"Safari 14.1.1"	"Version6"	11	10	"Male"	"English"	"Born and raised in the UK"	""	"No"	1	1	""	2	2	""	""	""	""	"wifi cut out part way through so missed a couple video or two"	"when the wifi cut out it carried on going through and didnt registersome of my son's answers"	""	"210719_c43"	"131L"	561.468789726658	"Children"	"aM"	"vNM"	"L"	"Acoustic Mask"	"No Visual Mask"	"Low Predictability"	"1"	"aMvNM"	99	"4"	11.8333333333333	"Male"	"Version6"
"210719_c43"	14729926	832.117279277608	525.310145439158	1	"discard_th too weak to detect"	"132H"	"thorns"	"aNM"	"vM"	"H"	"c"	"aNMvM"	3.12748116370056	2.29536388442295	2.6021710182614	2	"14729926_132HaNMvM"	"132H_aNM_vM.mp4"	7	"Version6"	"https://gorilla.sc/uploads/schedule/14729926?filename=audioFile-63-2.weba"	"Block1"	3	52	"/Users/kechun/Documents/GitHub/PerMaSC/Maskanalysis/questionnaire/child randomizer/data_exp_58325-v9_task-9d5m.csv"	46	2	9	"Mac OS 10.15.6"	"Safari 14.1.1"	"Version6"	11	10	"Male"	"English"	"Born and raised in the UK"	""	"No"	1	1	""	2	2	""	""	""	""	"wifi cut out part way through so missed a couple video or two"	"when the wifi cut out it carried on going through and didnt registersome of my son's answers"	""	"210719_c43"	"132H"	525.310145439158	"Children"	"aNM"	"vM"	"H"	"No Acoustic Mask"	"Visual Mask"	"High Predictability"	"1"	"aNMvM"	52	"2"	11.8333333333333	"Male"	"Version6"
"210719_c43"	14729926	669.133080071733	349.481991483063	1	"discard_f too weak to detect"	"53H"	"frogs"	"aM"	"vNM"	"H"	"c"	"aMvNM"	2.37700829940496	1.70787521933323	2.0275263079219	2	"14729926_53HaMvNM"	"53H_aM_vNM.mp4"	7	"Version6"	"https://gorilla.sc/uploads/schedule/14729926?filename=audioFile-18-2.weba"	"Block1"	4	9	"/Users/kechun/Documents/GitHub/PerMaSC/Maskanalysis/questionnaire/child randomizer/data_exp_58325-v9_task-9d5m.csv"	16	1	9	"Mac OS 10.15.6"	"Safari 14.1.1"	"Version6"	11	10	"Male"	"English"	"Born and raised in the UK"	""	"No"	1	1	""	2	2	""	""	""	""	"wifi cut out part way through so missed a couple video or two"	"when the wifi cut out it carried on going through and didnt registersome of my son's answers"	""	"210719_c43"	"53H"	349.481991483063	"Children"	"aM"	"vNM"	"H"	"Acoustic Mask"	"No Visual Mask"	"High Predictability"	"1"	"aMvNM"	9	"1"	11.8333333333333	"Male"	"Version6"
"210719_c43"	14729926	776.937438528858	392.122541773728	1	"discard_f too weak to detect"	"54H"	"fudge"	"aNM"	"vM"	"H"	"c"	"aNMvM"	2.93667115337256	2.1597337148437	2.54454861159883	2	"14729926_54HaNMvM"	"54H_aNM_vM.mp4"	7	"Version6"	"https://gorilla.sc/uploads/schedule/14729926?filename=audioFile-35-2.weba"	"Block1"	4	26	"/Users/kechun/Documents/GitHub/PerMaSC/Maskanalysis/questionnaire/child randomizer/data_exp_58325-v9_task-9d5m.csv"	16	1	9	"Mac OS 10.15.6"	"Safari 14.1.1"	"Version6"	11	10	"Male"	"English"	"Born and raised in the UK"	""	"No"	1	1	""	2	2	""	""	""	""	"wifi cut out part way through so missed a couple video or two"	"when the wifi cut out it carried on going through and didnt registersome of my son's answers"	""	"210719_c43"	"54H"	392.122541773728	"Children"	"aNM"	"vM"	"H"	"No Acoustic Mask"	"Visual Mask"	"High Predictability"	"1"	"aNMvM"	26	"1"	11.8333333333333	"Male"	"Version6"
"210719_c43"	14729926	642.7762994759	504.88617050759	1	"discard_h too weak to detect"	"65L"	"herd"	"aM"	"vNM"	"L"	"c"	"aMvNM"	2.6100361738158	1.9672598743399	2.10515000330821	2	"14729926_65LaMvNM"	"65L_aM_vNM.mp4"	7	"Version6"	"https://gorilla.sc/uploads/schedule/14729926?filename=audioFile-55-2.weba"	"Block1"	3	44	"/Users/kechun/Documents/GitHub/PerMaSC/Maskanalysis/questionnaire/child randomizer/data_exp_58325-v9_task-9d5m.csv"	46	2	9	"Mac OS 10.15.6"	"Safari 14.1.1"	"Version6"	11	10	"Male"	"English"	"Born and raised in the UK"	""	"No"	1	1	""	2	2	""	""	""	""	"wifi cut out part way through so missed a couple video or two"	"when the wifi cut out it carried on going through and didnt registersome of my son's answers"	""	"210719_c43"	"65L"	504.88617050759	"Children"	"aM"	"vNM"	"L"	"Acoustic Mask"	"No Visual Mask"	"Low Predictability"	"1"	"aMvNM"	44	"2"	11.8333333333333	"Male"	"Version6"
"210725_a130"	14796603	1434.65454509522	1257.75523953974	1	"discard_incomplete"	"42H"	"doll"	"aM"	"vNM"	"H"	"a"	"aMvNM"	3.31493893122303	1.88028438612781	2.05718369168329	2	"14796603_42HaMvNM"	"42H_aM_vNM.mp4"	7	"Version8"	"https://gorilla.sc/uploads/schedule/14796603?filename=audioFile-44-2.weba"	"Block1"	4	33	"/Users/kechun/Documents/GitHub/PerMaSC/Maskanalysis/questionnaire/adult randomizer/data_exp_58324-v9_task-fbmh.csv"	46	2	9	"Windows 10"	"Chrome 92.0.4515.107"	"Version8"	45	10	"Female"	"English"	"Born and raised in the UK"	""	"Yes frequently"	3	3	"Muffled speech"	2	1	"Everything worked well"	""	""	""	""	"None"	"No"	"210725_a130"	"42H"	1257.75523953974	"Adults"	"aM"	"vNM"	"H"	"Acoustic Mask"	"No Visual Mask"	"High Predictability"	"1"	"aMvNM"	33	"2"	45.8333333333333	"Female"	"Version8"
"210725_a132"	14693662	586.163814395699	371.456106062269	1	"unreleased p"	"107L"	"rope"	"aNM"	"vNM"	"L"	"a"	"aNMvNM"	2.7841118545566	2.1979480401609	2.41265574849433	2	"14693662_107LaNMvNM"	"107L_aNM_vNM.mp4"	7	"Version1"	"https://gorilla.sc/uploads/schedule/14693662?filename=audioFile-52-2.weba"	"Block1"	1	41	"/Users/kechun/Documents/GitHub/PerMaSC/Maskanalysis/questionnaire/adult randomizer/data_exp_58324-v9_task-b6hw.csv"	46	2	9	"Windows 10"	"Chrome 91.0.4472.124"	"Version1"	23	1	"Female"	"English"	"Born and raised in the UK"	""	"Yes sometimes"	3	2	""	1	1	"Everything worked well"	""	""	""	""	""	""	"210725_a132"	"107L"	371.456106062269	"Adults"	"aNM"	"vNM"	"L"	"No Acoustic Mask"	"No Visual Mask"	"Low Predictability"	"1"	"aNMvNM"	41	"2"	23.0833333333333	"Female"	"Version1"
"210725_a132"	14693662	629.567692470659	370.10609867716	1	"unsure_unsure about the onset"	"72L"	"juice"	"aNM"	"vM"	"L"	"a"	"aNMvM"	2.73372925121376	2.1041615587431	2.3636231525366	2	"14693662_72LaNMvM"	"72L_aNM_vM.mp4"	7	"Version1"	"https://gorilla.sc/uploads/schedule/14693662?filename=audioFile-74-2.weba"	"Block1"	4	61	"/Users/kechun/Documents/GitHub/PerMaSC/Maskanalysis/questionnaire/adult randomizer/data_exp_58324-v9_task-b6hw.csv"	76	3	9	"Windows 10"	"Chrome 91.0.4472.124"	"Version1"	23	1	"Female"	"English"	"Born and raised in the UK"	""	"Yes sometimes"	3	2	""	1	1	"Everything worked well"	""	""	""	""	""	""	"210725_a132"	"72L"	370.10609867716	"Adults"	"aNM"	"vM"	"L"	"No Acoustic Mask"	"Visual Mask"	"Low Predictability"	"1"	"aNMvM"	61	"3"	23.0833333333333	"Female"	"Version1"
"210725_a132"	14693662	626.534939561028	287.480772894368	1	"unfinished?"	"9L"	"blast"	"aM"	"vNM"	"L"	"a"	"aMvNM"	2.51419196088594	1.88765702132491	2.22671118799157	2	"14693662_9LaMvNM"	"9L_aM_vNM.mp4"	7	"Version1"	"https://gorilla.sc/uploads/schedule/14693662?filename=audioFile-83-2.weba"	"Block1"	4	70	"/Users/kechun/Documents/GitHub/PerMaSC/Maskanalysis/questionnaire/adult randomizer/data_exp_58324-v9_task-b6hw.csv"	76	3	9	"Windows 10"	"Chrome 91.0.4472.124"	"Version1"	23	1	"Female"	"English"	"Born and raised in the UK"	""	"Yes sometimes"	3	2	""	1	1	"Everything worked well"	""	""	""	""	""	""	"210725_a132"	"9L"	287.480772894368	"Adults"	"aM"	"vNM"	"L"	"Acoustic Mask"	"No Visual Mask"	"Low Predictability"	"1"	"aMvNM"	70	"3"	23.0833333333333	"Female"	"Version1"
"210725_a152"	15094721	859.33478355274	676.48685110324	1	"unsure_it sounds like 'clock'"	"21L"	"clerk"	"aM"	"vM"	"L"	"a"	"aMvM"	3.01818760193207	2.15885281837933	2.34170075082883	2	"15094721_21LaMvM"	"21L_aM_vM.mp4"	7	"Version4"	"https://gorilla.sc/uploads/schedule/15094721?filename=21LaMvMmp4-120-2.weba"	"Block1"	3	105	"/Users/kechun/Documents/GitHub/PerMaSC/Maskanalysis/questionnaire/adult randomizer/data_exp_58324-v9_task-7xnq.csv"	106	4	9	"Mac OS 10.13.6"	"Chrome 92.0.4515.107"	"Version4"	29	9	"Male"	"English"	"Born and raised in the UK"	""	"Yes sometimes"	2	1	""	1	1	"Everything worked well"	""	""	""	""	"one word confirmation did not load"	"none"	"210725_a152"	"21L"	676.48685110324	"Adults"	"aM"	"vM"	"L"	"Acoustic Mask"	"Visual Mask"	"Low Predictability"	"1"	"aMvM"	105	"4"	29.75	"Male"	"Version4"
"210725_a152"	15094721	1012.92812263037	920.624280639006	1	"debt?"	"38L"	"den"	"aM"	"vNM"	"L"	"a"	"aMvNM"	3.08224408404303	2.06931596141266	2.16161980340402	2	"15094721_38LaMvNM"	"38L_aM_vNM.mp4"	7	"Version4"	"https://gorilla.sc/uploads/schedule/15094721?filename=38LaMvNMmp4-134-2.weba"	"Block1"	3	119	"/Users/kechun/Documents/GitHub/PerMaSC/Maskanalysis/questionnaire/adult randomizer/data_exp_58324-v9_task-7xnq.csv"	106	4	9	"Mac OS 10.13.6"	"Chrome 92.0.4515.107"	"Version4"	29	9	"Male"	"English"	"Born and raised in the UK"	""	"Yes sometimes"	2	1	""	1	1	"Everything worked well"	""	""	""	""	"one word confirmation did not load"	"none"	"210725_a152"	"38L"	920.624280639006	"Adults"	"aM"	"vNM"	"L"	"Acoustic Mask"	"No Visual Mask"	"Low Predictability"	"1"	"aMvNM"	119	"4"	29.75	"Male"	"Version4"
"210725_a98"	15151086	64.81850084961	-74.4806890008603	1	"There is an overlap"	"65H"	"herd"	"aNM"	"vNM"	"H"	"a"	"aNMvNM"	2.41689821692475	2.35207971607514	2.49137890592561	2	"15151086_65HaNMvNM"	"65H_aNM_vNM.mp4"	7	"Version4"	"https://gorilla.sc/uploads/schedule/15151086?filename=65HaNMvNMmp4-80-2.weba"	"Block1"	3	67	"/Users/kechun/Documents/GitHub/PerMaSC/Maskanalysis/questionnaire/adult randomizer/data_exp_58324-v9_task-7xnq.csv"	76	3	9	"Ubuntu undefined"	"Firefox 91.0"	"Version4"	31	9	"Male"	"English"	"Born and raised in the UK"	""	"Yes sometimes"	2	2	""	2	3	"Everything worked well"	""	"There were issues with the sound"	""	"I got flustered for a couple."	"The very first test word \"\"cards\"\" was difficult to hear through my laptop speakers, but then I connected an external speaker and that worked fine."	""	"210725_a98"	"65H"	-74.4806890008603	"Adults"	"aNM"	"vNM"	"H"	"No Acoustic Mask"	"No Visual Mask"	"High Predictability"	"1"	"aNMvNM"	67	"3"	31.75	"Male"	"Version4"
"210725_a98"	15151086	414.860448775645	327.151840414725	1	"'prile'?"	"96H"	"pile"	"aNM"	"vNM"	"H"	"a"	"aNMvNM"	2.70333541663337	2.28847496785772	2.37618357621864	2	"15151086_96HaNMvNM"	"96H_aNM_vNM.mp4"	7	"Version4"	"https://gorilla.sc/uploads/schedule/15151086?filename=96HaNMvNMmp4-61-2.weba"	"Block1"	2	50	"/Users/kechun/Documents/GitHub/PerMaSC/Maskanalysis/questionnaire/adult randomizer/data_exp_58324-v9_task-7xnq.csv"	46	2	9	"Ubuntu undefined"	"Firefox 91.0"	"Version4"	31	9	"Male"	"English"	"Born and raised in the UK"	""	"Yes sometimes"	2	2	""	2	3	"Everything worked well"	""	"There were issues with the sound"	""	"I got flustered for a couple."	"The very first test word \"\"cards\"\" was difficult to hear through my laptop speakers, but then I connected an external speaker and that worked fine."	""	"210725_a98"	"96H"	327.151840414725	"Adults"	"aNM"	"vNM"	"H"	"No Acoustic Mask"	"No Visual Mask"	"High Predictability"	"1"	"aNMvNM"	50	"2"	31.75	"Male"	"Version4"
"210725_c124"	15410143	296.346069358787	25.3147974289774	1	"unsure_overlap with alice"	"119H"	"splash"	"aNM"	"vNM"	"H"	"c"	"aNMvNM"	2.46700772799723	2.17066165863844	2.44169293056825	2	"15410143_119HaNMvNM"	"119H_aNM_vNM.mp4"	7	"Version1"	"https://gorilla.sc/uploads/schedule/15410143?filename=119HaNMvNMmp4-74-2.weba"	"Block1"	4	61	"/Users/kechun/Documents/GitHub/PerMaSC/Maskanalysis/questionnaire/child randomizer/data_exp_58325-v9_task-l3g6.csv"	76	3	9	"Windows 10"	"Chrome 92.0.4515.159"	"Version1"	9	3	"Male"	"English"	"Born and raised in the UK"	""	"No"	2	2	""	2	3	""	"There were issues with the videos"	""	""	""	"slow to load videos and had to refresh a few times. it has taken us 25hours to upload all our results at the end too !"	"instructions were all really clear and easily understood, thank you"	"210725_c124"	"119H"	25.3147974289774	"Children"	"aNM"	"vNM"	"H"	"No Acoustic Mask"	"No Visual Mask"	"High Predictability"	"1"	"aNMvNM"	61	"3"	9.25	"Male"	"Version1"
"210725_c133"	15185742	911.331703386391	870.472576402281	1	"pre-nasalisation"	"57H"	"glue"	"aM"	"vNM"	"H"	"c"	"aMvNM"	3.11857217145632	2.20724046806993	2.24809959505404	2	"15185742_57HaMvNM"	"57H_aM_vNM.mp4"	7	"Version2"	"https://gorilla.sc/uploads/schedule/15185742?filename=57HaMvNMmp4-78-2.weba"	"Block1"	1	65	"/Users/kechun/Documents/GitHub/PerMaSC/Maskanalysis/questionnaire/child randomizer/data_exp_58325-v9_task-tucf.csv"	76	3	9	"Windows 10"	"Edge 92.0.902.73"	"Version2"	12	4	"Female"	"English"	"Born and raised in the UK"	""	"Yes sometimes"	2	1	"It can be hard to hear when the speaker is wearing a mask"	2	4	"Everything worked well"	""	""	""	""	"The videos occasionally were laggy."	"No"	"210725_c133"	"57H"	870.472576402281	"Children"	"aM"	"vNM"	"H"	"Acoustic Mask"	"No Visual Mask"	"High Predictability"	"1"	"aMvNM"	65	"3"	12.3333333333333	"Female"	"Version2"
"210725_c133"	15185742	553.773982303536	470.959597382946	1	"pre-nasalisation"	"59L"	"gown"	"aNM"	"vM"	"L"	"c"	"aNMvM"	2.8593185329126	2.30554455060906	2.38835893552965	2	"15185742_59LaNMvM"	"59L_aNM_vM.mp4"	7	"Version2"	"https://gorilla.sc/uploads/schedule/15185742?filename=59LaNMvMmp4-116-2.weba"	"Block1"	4	101	"/Users/kechun/Documents/GitHub/PerMaSC/Maskanalysis/questionnaire/child randomizer/data_exp_58325-v9_task-tucf.csv"	106	4	9	"Windows 10"	"Edge 92.0.902.73"	"Version2"	12	4	"Female"	"English"	"Born and raised in the UK"	""	"Yes sometimes"	2	1	"It can be hard to hear when the speaker is wearing a mask"	2	4	"Everything worked well"	""	""	""	""	"The videos occasionally were laggy."	"No"	"210725_c133"	"59L"	470.959597382946	"Children"	"aNM"	"vM"	"L"	"No Acoustic Mask"	"Visual Mask"	"Low Predictability"	"1"	"aNMvM"	101	"4"	12.3333333333333	"Female"	"Version2"
"210725_c96"	14886549	755.968212204004	499.988442088994	1	"discard_echo in response"	"109L"	"sand"	"aNM"	"vM"	"L"	"c"	"aNMvM"	2.88647283475082	2.13050462254682	2.38648439266183	2	"14886549_109LaNMvM"	"109L_aNM_vM.mp4"	7	"Version1"	"https://gorilla.sc/uploads/schedule/14886549?filename=109LaNMvMmp4-123-2.weba"	"Block1"	4	108	"/Users/kechun/Documents/GitHub/PerMaSC/Maskanalysis/questionnaire/child randomizer/data_exp_58325-v9_task-l3g6.csv"	106	4	9	"Mac OS 10.15.6"	"Safari 14.1.1"	"Version1"	13	0	"Male"	"English"	"Born and raised in the UK"	""	"No"	3	3	""	3	2	""	"There were issues with the videos"	""	""	""	"the video would not load it happened seven times"	""	"210725_c96"	"109L"	499.988442088994	"Children"	"aNM"	"vM"	"L"	"No Acoustic Mask"	"Visual Mask"	"Low Predictability"	"1"	"aNMvM"	108	"4"	13	"Male"	"Version1"
"210725_c96"	14886549	532.072146621019	422.001476686379	1	"pre-nasalisation"	"2H"	"barn"	"aM"	"vM"	"H"	"c"	"aMvM"	2.4785824168209	1.94651027019988	2.05658094013452	2	"14886549_2HaMvM"	"2H_aM_vM.mp4"	7	"Version1"	"https://gorilla.sc/uploads/schedule/14886549?filename=2HaMvMmp4-57-2.weba"	"Block1"	1	46	"/Users/kechun/Documents/GitHub/PerMaSC/Maskanalysis/questionnaire/child randomizer/data_exp_58325-v9_task-l3g6.csv"	46	2	9	"Mac OS 10.15.6"	"Safari 14.1.1"	"Version1"	13	0	"Male"	"English"	"Born and raised in the UK"	""	"No"	3	3	""	3	2	""	"There were issues with the videos"	""	""	""	"the video would not load it happened seven times"	""	"210725_c96"	"2H"	422.001476686379	"Children"	"aM"	"vM"	"H"	"Acoustic Mask"	"Visual Mask"	"High Predictability"	"1"	"aMvM"	46	"2"	13	"Male"	"Version1"
"210725_c96"	14886549	855.57765992738	664.41327820695	1	"pre-nasalisation"	"36H"	"dart"	"aNM"	"vM"	"H"	"c"	"aNMvM"	3.02320560903442	2.16762794910704	2.35879233082747	2	"14886549_36HaNMvM"	"36H_aNM_vM.mp4"	7	"Version1"	"https://gorilla.sc/uploads/schedule/14886549?filename=36HaNMvMmp4-48-2.weba"	"Block1"	1	37	"/Users/kechun/Documents/GitHub/PerMaSC/Maskanalysis/questionnaire/child randomizer/data_exp_58325-v9_task-l3g6.csv"	46	2	9	"Mac OS 10.15.6"	"Safari 14.1.1"	"Version1"	13	0	"Male"	"English"	"Born and raised in the UK"	""	"No"	3	3	""	3	2	""	"There were issues with the videos"	""	""	""	"the video would not load it happened seven times"	""	"210725_c96"	"36H"	664.41327820695	"Children"	"aNM"	"vM"	"H"	"No Acoustic Mask"	"Visual Mask"	"High Predictability"	"1"	"aNMvM"	37	"2"	13	"Male"	"Version1"
"210725_c96"	14886549	425.590479070597	264.973812403926	1	"pre-nasalisation"	"46H"	"drug"	"aNM"	"vM"	"H"	"c"	"aNMvM"	2.70730081898677	2.28171033991617	2.44232700658284	2	"14886549_46HaNMvM"	"46H_aNM_vM.mp4"	7	"Version1"	"https://gorilla.sc/uploads/schedule/14886549?filename=46HaNMvMmp4-89-2.weba"	"Block1"	3	76	"/Users/kechun/Documents/GitHub/PerMaSC/Maskanalysis/questionnaire/child randomizer/data_exp_58325-v9_task-l3g6.csv"	76	3	9	"Mac OS 10.15.6"	"Safari 14.1.1"	"Version1"	13	0	"Male"	"English"	"Born and raised in the UK"	""	"No"	3	3	""	3	2	""	"There were issues with the videos"	""	""	""	"the video would not load it happened seven times"	""	"210725_c96"	"46H"	264.973812403926	"Children"	"aNM"	"vM"	"H"	"No Acoustic Mask"	"Visual Mask"	"High Predictability"	"1"	"aNMvM"	76	"3"	13	"Male"	"Version1"
"210818_c166"	15254546	1145.10319982181	986.296760427962	1	"rising intonation"	"105H"	"rim"	"aNM"	"vNM"	"H"	"c"	"aNMvNM"	3.42694899887223	2.28184579905042	2.44065223844427	2	"15254546_105HaNMvNM"	"105H_aNM_vNM.mp4"	7	"Version4"	"https://gorilla.sc/uploads/schedule/15254546?filename=105HaNMvNMmp4-93-2.weba"	"Block1"	4	80	"/Users/kechun/Documents/GitHub/PerMaSC/Maskanalysis/questionnaire/child randomizer/data_exp_58325-v9_task-gv44.csv"	76	3	9	"Windows 10"	"Chrome 92.0.4515.131"	"Version4"	8	8	"Male"	"English"	"Born and raised in the UK"	""	"No"	2	1	""	2	2	""	"There were issues with the videos"	""	""	""	"page needed refreshing about every 4 videos.  Speech with no mask was out of sink with video mouth movements."	"Child says it was fun :)"	"210818_c166"	"105H"	986.296760427962	"Children"	"aNM"	"vNM"	"H"	"No Acoustic Mask"	"No Visual Mask"	"High Predictability"	"1"	"aNMvNM"	80	"3"	8.66666666666667	"Male"	"Version4"
"210818_c166"	15254546	601.320568381662	448.884720154452	1	"pre-nasalisation"	"12L"	"bread"	"aNM"	"vM"	"L"	"c"	"aNMvM"	2.46896637986495	1.86764581148329	2.0200816597105	2	"15254546_12LaNMvM"	"12L_aNM_vM.mp4"	7	"Version4"	"https://gorilla.sc/uploads/schedule/15254546?filename=12LaNMvMmp4-116-2.weba"	"Block1"	3	101	"/Users/kechun/Documents/GitHub/PerMaSC/Maskanalysis/questionnaire/child randomizer/data_exp_58325-v9_task-gv44.csv"	106	4	9	"Windows 10"	"Chrome 92.0.4515.131"	"Version4"	8	8	"Male"	"English"	"Born and raised in the UK"	""	"No"	2	1	""	2	2	""	"There were issues with the videos"	""	""	""	"page needed refreshing about every 4 videos.  Speech with no mask was out of sink with video mouth movements."	"Child says it was fun :)"	"210818_c166"	"12L"	448.884720154452	"Children"	"aNM"	"vM"	"L"	"No Acoustic Mask"	"Visual Mask"	"Low Predictability"	"1"	"aNMvM"	101	"4"	8.66666666666667	"Male"	"Version4"
"210818_c166"	15254546	691.083605903753	504.396847010483	1	"ending slight cut off"	"37H"	"deck"	"aM"	"vM"	"H"	"c"	"aMvM"	2.26677298613647	1.57568938023272	1.76237613912599	2	"15254546_37HaMvM"	"37H_aM_vM.mp4"	7	"Version4"	"https://gorilla.sc/uploads/schedule/15254546?filename=37HaMvMmp4-66-2.weba"	"Block1"	2	55	"/Users/kechun/Documents/GitHub/PerMaSC/Maskanalysis/questionnaire/child randomizer/data_exp_58325-v9_task-gv44.csv"	46	2	9	"Windows 10"	"Chrome 92.0.4515.131"	"Version4"	8	8	"Male"	"English"	"Born and raised in the UK"	""	"No"	2	1	""	2	2	""	"There were issues with the videos"	""	""	""	"page needed refreshing about every 4 videos.  Speech with no mask was out of sink with video mouth movements."	"Child says it was fun :)"	"210818_c166"	"37H"	504.396847010483	"Children"	"aM"	"vM"	"H"	"Acoustic Mask"	"Visual Mask"	"High Predictability"	"1"	"aMvM"	55	"2"	8.66666666666667	"Male"	"Version4"
