"","parid","scheduleID","react1","react2","accuracy","note","number","correctans","audio","video","context","group","type","beep_response","length1","length2","videoname","Task.Version","Spreadsheet","Response","display","row_number","filename","Experiment.Version","Participant.OS","Participant.Browser","randomiser.t27m","date.of.birth.year","date.of.birth.month","sex","languages","response.6","response.6.text","mask.problems","Difficulty.x","Tiring","more.info.on.masks","Difficulty.y","Distraction","response.4.1","response.4.2","response.4.3","response.4.4","response.4.text","response.5","Comments","block","SUBJECT","ITEM","RT","GROUP","AUDIO","VISUAL","PREDICT","ACC","CONDITION","TRIAL","BLOCK","AGE","SEX"
"21","210719_a25",14557507,343.858862462167,238.500961227577,0,"spin","122L","spoon","aNM","vNM","L","a","aNMvNM",2.55495273920108,2.21109387673891,2.3164517779735,"122L_aNM_vNM.mp4",7,"Version8","https://gorilla.sc/uploads/schedule/14557507?filename=122LaNMvNMmp4-123-2.weba","Block1",108,"/Users/kechun/Documents/GitHub/PerMaSC/Maskanalysis/questionnaire/adult randomizer/data_exp_58324-v7_task-fbmh.csv",7,"Windows 10","Chrome 92.0.4515.107","Version8",26,3,"Female","English","Born and raised in the UK",NA,"Yes sometimes",3,2,"",1,2,"Everything worked well",NA,NA,NA,NA,NA,NA,4,"210719_a25","122L",238.500961227577,"a","aNM","vNM","L","0","aNMvNM",108,"4",26.25,"Female"
"33","210719_a25",14557507,487.866399451959,354.75436665264,0,"ten","134L","tin","aM","vM","L","a","aMvM",2.26796424025919,1.78009784080723,1.91320987360655,"134L_aM_vM.mp4",7,"Version8","https://gorilla.sc/uploads/schedule/14557507?filename=134LaMvMmp4-86-2.weba","Block1",73,"/Users/kechun/Documents/GitHub/PerMaSC/Maskanalysis/questionnaire/adult randomizer/data_exp_58324-v7_task-fbmh.csv",7,"Windows 10","Chrome 92.0.4515.107","Version8",26,3,"Female","English","Born and raised in the UK",NA,"Yes sometimes",3,2,"",1,2,"Everything worked well",NA,NA,NA,NA,NA,NA,3,"210719_a25","134L",354.75436665264,"a","aM","vM","L","0","aMvM",73,"3",26.25,"Female"
"46","210719_a25",14557507,538.916889590977,353.540993387037,0,"clark?","21H","clerk","aNM","vNM","H","a","aNMvNM",3.07813370039808,2.5392168108071,2.72459270701104,"21H_aNM_vNM.mp4",7,"Version8","https://gorilla.sc/uploads/schedule/14557507?filename=21HaNMvNMmp4-28-2.weba","Block1",19,"/Users/kechun/Documents/GitHub/PerMaSC/Maskanalysis/questionnaire/adult randomizer/data_exp_58324-v7_task-fbmh.csv",7,"Windows 10","Chrome 92.0.4515.107","Version8",26,3,"Female","English","Born and raised in the UK",NA,"Yes sometimes",3,2,"",1,2,"Everything worked well",NA,NA,NA,NA,NA,NA,1,"210719_a25","21H",353.540993387037,"a","aNM","vNM","H","0","aNMvNM",19,"1",26.25,"Female"
"137","210719_a41",14610319,622.613071064866,467.186823293006,0,"snail","118L","sling","aM","vNM","L","a","aMvNM",2.95888363813267,2.3362705670678,2.49169681483966,"118L_aM_vNM.mp4",7,"Version1","https://gorilla.sc/uploads/schedule/14610319?filename=118LaMvNMmp4-130-2.weba","Block1",115,"/Users/kechun/Documents/GitHub/PerMaSC/Maskanalysis/questionnaire/adult randomizer/data_exp_58324-v8_task-b6hw.csv",8,"Windows 10","Chrome 92.0.4515.107","Version1",51,8,"Male","English","Born and raised in the UK",NA,"Yes sometimes",2,3,"low volume and pronunciation without being able to lip read",2,1,"Everything worked well","",NA,"",NA,"none","One of the questions in Level 2 text on screen should say 'kerb' not 'curb'!",4,"210719_a41","118L",467.186823293006,"a","aM","vNM","L","0","aMvNM",115,"4",51.6666666666667,"Male"
"158","210719_a41",14610319,256.35041508586,87.84801123964,0,"nasalisation 'mban'","140H","van","aM","vNM","H","a","aMvNM",2.85208491167553,2.59573449658967,2.76423690043589,"140H_aM_vNM.mp4",7,"Version1","https://gorilla.sc/uploads/schedule/14610319?filename=140HaMvNMmp4-44-2.weba","Block1",33,"/Users/kechun/Documents/GitHub/PerMaSC/Maskanalysis/questionnaire/adult randomizer/data_exp_58324-v8_task-b6hw.csv",8,"Windows 10","Chrome 92.0.4515.107","Version1",51,8,"Male","English","Born and raised in the UK",NA,"Yes sometimes",2,3,"low volume and pronunciation without being able to lip read",2,1,"Everything worked well","",NA,"",NA,"none","One of the questions in Level 2 text on screen should say 'kerb' not 'curb'!",2,"210719_a41","140H",87.84801123964,"a","aM","vNM","H","0","aMvNM",33,"2",51.6666666666667,"Male"
"163","210719_a41",14610319,704.232199472739,471.75224089575,0,"pulsed?","17L","calf","aM","vM","L","a","aMvM",3.42767699303266,2.72344479355992,2.95592475213691,"17L_aM_vM.mp4",7,"Version1","https://gorilla.sc/uploads/schedule/14610319?filename=17LaMvMmp4-70-2.weba","Block1",59,"/Users/kechun/Documents/GitHub/PerMaSC/Maskanalysis/questionnaire/adult randomizer/data_exp_58324-v8_task-b6hw.csv",8,"Windows 10","Chrome 92.0.4515.107","Version1",51,8,"Male","English","Born and raised in the UK",NA,"Yes sometimes",2,3,"low volume and pronunciation without being able to lip read",2,1,"Everything worked well","",NA,"",NA,"none","One of the questions in Level 2 text on screen should say 'kerb' not 'curb'!",2,"210719_a41","17L",471.75224089575,"a","aM","vM","L","0","aMvM",59,"2",51.6666666666667,"Male"
"183","210719_a41",14610319,349.786181005089,247.373978624139,0,"wrongthencorrectsit","38H","den","aNM","vNM","H","a","aNMvNM",2.79584460896278,2.44605842795769,2.54847063033864,"38H_aNM_vNM.mp4",7,"Version1","https://gorilla.sc/uploads/schedule/14610319?filename=38HaNMvNMmp4-122-2.weba","Block1",107,"/Users/kechun/Documents/GitHub/PerMaSC/Maskanalysis/questionnaire/adult randomizer/data_exp_58324-v8_task-b6hw.csv",8,"Windows 10","Chrome 92.0.4515.107","Version1",51,8,"Male","English","Born and raised in the UK",NA,"Yes sometimes",2,3,"low volume and pronunciation without being able to lip read",2,1,"Everything worked well","",NA,"",NA,"none","One of the questions in Level 2 text on screen should say 'kerb' not 'curb'!",4,"210719_a41","38H",247.373978624139,"a","aNM","vNM","H","0","aNMvNM",107,"4",51.6666666666667,"Male"
"234","210719_a41",14610319,552.021266574378,282.595531280138,0,"bet","94L","pet","aM","vM","L","a","aMvM",2.91004044612093,2.35801917954655,2.62744491484079,"94L_aM_vM.mp4",7,"Version1","https://gorilla.sc/uploads/schedule/14610319?filename=94LaMvMmp4-49-2.weba","Block1",38,"/Users/kechun/Documents/GitHub/PerMaSC/Maskanalysis/questionnaire/adult randomizer/data_exp_58324-v8_task-b6hw.csv",8,"Windows 10","Chrome 92.0.4515.107","Version1",51,8,"Male","English","Born and raised in the UK",NA,"Yes sometimes",2,3,"low volume and pronunciation without being able to lip read",2,1,"Everything worked well","",NA,"",NA,"none","One of the questions in Level 2 text on screen should say 'kerb' not 'curb'!",2,"210719_a41","94L",282.595531280138,"a","aM","vM","L","0","aMvM",38,"2",51.6666666666667,"Male"
"237","210719_a41",14610319,794.307417295195,653.145291226835,0,"time","98L","pine","aM","vM","L","a","aMvM",2.71108065509717,1.91677323780198,2.05793536387034,"98L_aM_vM.mp4",7,"Version1","https://gorilla.sc/uploads/schedule/14610319?filename=98LaMvMmp4-92-2.weba","Block1",79,"/Users/kechun/Documents/GitHub/PerMaSC/Maskanalysis/questionnaire/adult randomizer/data_exp_58324-v8_task-b6hw.csv",8,"Windows 10","Chrome 92.0.4515.107","Version1",51,8,"Male","English","Born and raised in the UK",NA,"Yes sometimes",2,3,"low volume and pronunciation without being able to lip read",2,1,"Everything worked well","",NA,"",NA,"none","One of the questions in Level 2 text on screen should say 'kerb' not 'curb'!",3,"210719_a41","98L",653.145291226835,"a","aM","vM","L","0","aMvM",79,"3",51.6666666666667,"Male"
"325","210719_c12",14456668,5683.39750400003,5571.13000400005,0,"I dont' know","65H","herd","aM","vM","H","c","aMvM",8.02636517939544,2.34296767539541,2.45523517539539,"65H_aM_vM.mp4",7,"Version2","https://gorilla.sc/uploads/schedule/14456668?filename=65HaMvMmp4-13-2.weba","Block1",4,"/Users/kechun/Documents/GitHub/PerMaSC/Maskanalysis/questionnaire/child randomizer/data_exp_58325-v3_task-tucf.csv",3,"Chromium OS 13904.77.0","Chrome 91.0.4472.147","Version2",10,7,"Female","English and another language (bilingual)","Born and raised in the UK",NA,"I don't know",2,1,NA,1,1,"Everything worked well",NA,NA,NA,NA,NA,NA,1,"210719_c12","65H",5571.13000400005,"c","aM","vM","H","0","aMvM",4,"1",10.5833333333333,"Female"
"334","210719_c12",14456668,622.632936549491,413.711805597121,0,"a kick","74L","kick","aM","vNM","L","c","aMvNM",3.03548415818885,2.41285122163936,2.62177235259173,"74L_aM_vNM.mp4",7,"Version2","https://gorilla.sc/uploads/schedule/14456668?filename=74LaMvNMmp4-124-2.weba","Block1",109,"/Users/kechun/Documents/GitHub/PerMaSC/Maskanalysis/questionnaire/child randomizer/data_exp_58325-v3_task-tucf.csv",3,"Chromium OS 13904.77.0","Chrome 91.0.4472.147","Version2",10,7,"Female","English and another language (bilingual)","Born and raised in the UK",NA,"I don't know",2,1,NA,1,1,"Everything worked well",NA,NA,NA,NA,NA,NA,4,"210719_c12","74L",413.711805597121,"c","aM","vNM","L","0","aMvNM",109,"4",10.5833333333333,"Female"
"397","210719_c26",14526592,787.644457877275,652.279421645305,0,"s van","140H","van","aNM","vNM","H","c","aNMvNM",3.38428269857378,2.59663824069651,2.73200327692848,"140H_aNM_vNM.mp4",7,"Version4","https://gorilla.sc/uploads/schedule/14526592?filename=140HaNMvNMmp4-78-2.weba","Block1",65,"/Users/kechun/Documents/GitHub/PerMaSC/Maskanalysis/questionnaire/child randomizer/data_exp_58325-v5_task-gv44.csv",5,"Windows 10","Chrome 92.0.4515.107","Version4",11,4,"Female","English","Born and raised in the UK",NA,"No",2,2,"They have limited experience of communicating with someone with a face mask",2,1,"Everything worked well",NA,NA,NA,NA,"","",3,"210719_c26","140H",652.279421645305,"c","aNM","vNM","H","0","aNMvNM",65,"3",11.3333333333333,"Female"
"405","210719_c26",14526592,747.525237765359,564.677305315859,0,"'clocp'","21L","clerk","aM","vM","L","c","aMvM",2.90637805614469,2.15885281837933,2.34170075082883,"21L_aM_vM.mp4",7,"Version4","https://gorilla.sc/uploads/schedule/14526592?filename=21LaMvMmp4-107-2.weba","Block1",92,"/Users/kechun/Documents/GitHub/PerMaSC/Maskanalysis/questionnaire/child randomizer/data_exp_58325-v5_task-gv44.csv",5,"Windows 10","Chrome 92.0.4515.107","Version4",11,4,"Female","English","Born and raised in the UK",NA,"No",2,2,"They have limited experience of communicating with someone with a face mask",2,1,"Everything worked well",NA,NA,NA,NA,"","",4,"210719_c26","21L",564.677305315859,"c","aM","vM","L","0","aMvM",92,"4",11.3333333333333,"Female"
"432","210719_c26",14526592,1034.83938448773,926.735408602498,0,"'fame'","50L","flame","aM","vNM","L","c","aMvNM",3.38549494567201,2.35065556118428,2.45875953706951,"50L_aM_vNM.mp4",7,"Version4","https://gorilla.sc/uploads/schedule/14526592?filename=50LaMvNMmp4-15-2.weba","Block1",6,"/Users/kechun/Documents/GitHub/PerMaSC/Maskanalysis/questionnaire/child randomizer/data_exp_58325-v5_task-gv44.csv",5,"Windows 10","Chrome 92.0.4515.107","Version4",11,4,"Female","English","Born and raised in the UK",NA,"No",2,2,"They have limited experience of communicating with someone with a face mask",2,1,"Everything worked well",NA,NA,NA,NA,"","",1,"210719_c26","50L",926.735408602498,"c","aM","vNM","L","0","aMvNM",6,"1",11.3333333333333,"Female"
"433","210719_c26",14526592,802.197174679236,599.038378382946,0,"sounds like 'flog'. I think it ends with a click actually","51L","flock","aNM","vM","L","c","aNMvM",2.99644217065691,2.19424499597767,2.39740379227396,"51L_aNM_vM.mp4",7,"Version4","https://gorilla.sc/uploads/schedule/14526592?filename=51LaNMvMmp4-116-2.weba","Block1",101,"/Users/kechun/Documents/GitHub/PerMaSC/Maskanalysis/questionnaire/child randomizer/data_exp_58325-v5_task-gv44.csv",5,"Windows 10","Chrome 92.0.4515.107","Version4",11,4,"Female","English","Born and raised in the UK",NA,"No",2,2,"They have limited experience of communicating with someone with a face mask",2,1,"Everything worked well",NA,NA,NA,NA,"","",4,"210719_c26","51L",599.038378382946,"c","aNM","vM","L","0","aNMvM",101,"4",11.3333333333333,"Female"
"453","210719_c26",14526592,749.160536254233,468.810446648493,0,"I think the final 'k' is voiced though","73H","junk","aNM","vNM","H","c","aNMvNM",3.04152247462633,2.2923619383721,2.57271202797784,"73H_aNM_vNM.mp4",7,"Version4","https://gorilla.sc/uploads/schedule/14526592?filename=73HaNMvNMmp4-22-2.weba","Block1",13,"/Users/kechun/Documents/GitHub/PerMaSC/Maskanalysis/questionnaire/child randomizer/data_exp_58325-v5_task-gv44.csv",5,"Windows 10","Chrome 92.0.4515.107","Version4",11,4,"Female","English","Born and raised in the UK",NA,"No",2,2,"They have limited experience of communicating with someone with a face mask",2,1,"Everything worked well",NA,NA,NA,NA,"","",1,"210719_c26","73H",468.810446648493,"c","aNM","vNM","H","0","aNMvNM",13,"1",11.3333333333333,"Female"
"484","210719_c29",14956811,670.282044338458,486.466054742869,0,"it ends with a click","107L","rope","aM","vNM","L","c","aMvNM",2.81679841484968,2.14651637051122,2.33033236010681,"107L_aM_vNM.mp4",7,"Version2","https://gorilla.sc/uploads/schedule/14956811?filename=107LaMvNMmp4-62-2.weba","Block1",51,"/Users/kechun/Documents/GitHub/PerMaSC/Maskanalysis/questionnaire/child randomizer/data_exp_58325-v9_task-tucf.csv",9,"Windows 10","Chrome 92.0.4515.107","Version2",11,7,"Female","English","Born and raised in the UK","","No",2,1,"Muffled Speech",2,1,"","There were issues with the videos","","","","When I clicked on the video the screen went white and i didnt know if it was playing because i couldn't hear. It happened 3 times.","",2,"210719_c29","107L",486.466054742869,"c","aM","vNM","L","0","aMvNM",51,"2",11.5833333333333,"Female"
"498","210719_c29",14956811,393.773939513221,198.107930005401,0,"spoold","121L","spool","aM","vM","L","c","aMvM",2.5247124647612,2.13093852524798,2.3266045347558,"121L_aM_vM.mp4",7,"Version2","https://gorilla.sc/uploads/schedule/14956811?filename=121LaMvMmp4-91-2.weba","Block1",78,"/Users/kechun/Documents/GitHub/PerMaSC/Maskanalysis/questionnaire/child randomizer/data_exp_58325-v9_task-tucf.csv",9,"Windows 10","Chrome 92.0.4515.107","Version2",11,7,"Female","English","Born and raised in the UK","","No",2,1,"Muffled Speech",2,1,"","There were issues with the videos","","","","When I clicked on the video the screen went white and i didnt know if it was playing because i couldn't hear. It happened 3 times.","",3,"210719_c29","121L",198.107930005401,"c","aM","vM","L","0","aMvM",78,"3",11.5833333333333,"Female"
"511","210719_c29",14956811,1074.71521468441,920.843956968416,0,"too quite to be heard","134L","tin","aNM","vNM","L","c","aNMvNM",2.82978052126035,1.75506530657594,1.90893656429193,"134L_aNM_vNM.mp4",7,"Version2","https://gorilla.sc/uploads/schedule/14956811?filename=134LaNMvNMmp4-30-2.weba","Block1",21,"/Users/kechun/Documents/GitHub/PerMaSC/Maskanalysis/questionnaire/child randomizer/data_exp_58325-v9_task-tucf.csv",9,"Windows 10","Chrome 92.0.4515.107","Version2",11,7,"Female","English","Born and raised in the UK","","No",2,1,"Muffled Speech",2,1,"","There were issues with the videos","","","","When I clicked on the video the screen went white and i didnt know if it was playing because i couldn't hear. It happened 3 times.","",1,"210719_c29","134L",920.843956968416,"c","aNM","vNM","L","0","aNMvNM",21,"1",11.5833333333333,"Female"
"520","210719_c29",14956811,1412.64158283922,1191.76973940488,0,"do not think she said anything","16H","cake","aNM","vM","H","c","aNMvM",4.03675661543504,2.62411503259582,2.84498687603016,"16H_aNM_vM.mp4",7,"Version2","https://gorilla.sc/uploads/schedule/14956811?filename=16HaNMvMmp4-34-2.weba","Block1",25,"/Users/kechun/Documents/GitHub/PerMaSC/Maskanalysis/questionnaire/child randomizer/data_exp_58325-v9_task-tucf.csv",9,"Windows 10","Chrome 92.0.4515.107","Version2",11,7,"Female","English","Born and raised in the UK","","No",2,1,"Muffled Speech",2,1,"","There were issues with the videos","","","","When I clicked on the video the screen went white and i didnt know if it was playing because i couldn't hear. It happened 3 times.","",1,"210719_c29","16H",1191.76973940488,"c","aNM","vM","H","0","aNMvM",25,"1",11.5833333333333,"Female"
"524","210719_c29",14956811,313.586915749411,130.738983299911,0,"cars?","21L","clerk","aM","vNM","L","c","aMvNM",2.47243973412874,2.15885281837933,2.34170075082883,"21L_aM_vNM.mp4",7,"Version2","https://gorilla.sc/uploads/schedule/14956811?filename=21LaMvNMmp4-80-2.weba","Block1",67,"/Users/kechun/Documents/GitHub/PerMaSC/Maskanalysis/questionnaire/child randomizer/data_exp_58325-v9_task-tucf.csv",9,"Windows 10","Chrome 92.0.4515.107","Version2",11,7,"Female","English","Born and raised in the UK","","No",2,1,"Muffled Speech",2,1,"","There were issues with the videos","","","","When I clicked on the video the screen went white and i didnt know if it was playing because i couldn't hear. It happened 3 times.","",3,"210719_c29","21L",130.738983299911,"c","aM","vNM","L","0","aMvNM",67,"3",11.5833333333333,"Female"
"543","210719_c29",14956811,1275.9078321006,1229.2715821006,0,"sounds like boy","3L","bay","aM","vM","L","c","aMvM",3.69359498845037,2.41768715634977,2.46432340634977,"3L_aM_vM.mp4",7,"Version2","https://gorilla.sc/uploads/schedule/14956811?filename=3LaMvMmp4-16-2.weba","Block1",7,"/Users/kechun/Documents/GitHub/PerMaSC/Maskanalysis/questionnaire/child randomizer/data_exp_58325-v9_task-tucf.csv",9,"Windows 10","Chrome 92.0.4515.107","Version2",11,7,"Female","English","Born and raised in the UK","","No",2,1,"Muffled Speech",2,1,"","There were issues with the videos","","","","When I clicked on the video the screen went white and i didnt know if it was playing because i couldn't hear. It happened 3 times.","",1,"210719_c29","3L",1229.2715821006,"c","aM","vM","L","0","aMvM",7,"1",11.5833333333333,"Female"
"555","210719_c29",14956811,-301.188440803092,-342.047567787202,0,"sounds like Alices recording rather than the participant","57H","glue","aM","vNM","H","c","aMvNM",1.90605202726684,2.20724046806993,2.24809959505404,"57H_aM_vNM.mp4",7,"Version2","https://gorilla.sc/uploads/schedule/14956811?filename=57HaMvNMmp4-50-2.weba","Block1",39,"/Users/kechun/Documents/GitHub/PerMaSC/Maskanalysis/questionnaire/child randomizer/data_exp_58325-v9_task-tucf.csv",9,"Windows 10","Chrome 92.0.4515.107","Version2",11,7,"Female","English","Born and raised in the UK","","No",2,1,"Muffled Speech",2,1,"","There were issues with the videos","","","","When I clicked on the video the screen went white and i didnt know if it was playing because i couldn't hear. It happened 3 times.","",2,"210719_c29","57H",-342.047567787202,"c","aM","vNM","H","0","aMvNM",39,"2",11.5833333333333,"Female"
"556","210719_c29",14956811,637.999593382121,512.265369272941,0,"cannot hear","58H","goal","aNM","vM","H","c","aNMvM",2.71302982828115,2.07503023489903,2.20076445900821,"58H_aNM_vM.mp4",7,"Version2","https://gorilla.sc/uploads/schedule/14956811?filename=58HaNMvMmp4-10-2.weba","Block1",1,"/Users/kechun/Documents/GitHub/PerMaSC/Maskanalysis/questionnaire/child randomizer/data_exp_58325-v9_task-tucf.csv",9,"Windows 10","Chrome 92.0.4515.107","Version2",11,7,"Female","English","Born and raised in the UK","","No",2,1,"Muffled Speech",2,1,"","There were issues with the videos","","","","When I clicked on the video the screen went white and i didnt know if it was playing because i couldn't hear. It happened 3 times.","",1,"210719_c29","58H",512.265369272941,"c","aNM","vM","H","0","aNMvM",1,"1",11.5833333333333,"Female"
"573","210719_c29",14956811,875.224374248885,666.303243296515,0,"cannot hear","74L","kick","aM","vNM","L","c","aMvNM",3.28807559588824,2.41285122163936,2.62177235259173,"74L_aM_vNM.mp4",7,"Version2","https://gorilla.sc/uploads/schedule/14956811?filename=74LaMvNMmp4-29-2.weba","Block1",20,"/Users/kechun/Documents/GitHub/PerMaSC/Maskanalysis/questionnaire/child randomizer/data_exp_58325-v9_task-tucf.csv",9,"Windows 10","Chrome 92.0.4515.107","Version2",11,7,"Female","English","Born and raised in the UK","","No",2,1,"Muffled Speech",2,1,"","There were issues with the videos","","","","When I clicked on the video the screen went white and i didnt know if it was playing because i couldn't hear. It happened 3 times.","",1,"210719_c29","74L",666.303243296515,"c","aM","vNM","L","0","aMvNM",20,"1",11.5833333333333,"Female"
"577","210719_c29",14956811,1191.46608092066,1045.58855566816,0,"double l","79H","lid","aNM","vM","H","c","aNMvM",3.25922099028051,2.06775490935985,2.21363243461235,"79H_aNM_vM.mp4",7,"Version2","https://gorilla.sc/uploads/schedule/14956811?filename=79HaNMvMmp4-100-2.weba","Block1",87,"/Users/kechun/Documents/GitHub/PerMaSC/Maskanalysis/questionnaire/child randomizer/data_exp_58325-v9_task-tucf.csv",9,"Windows 10","Chrome 92.0.4515.107","Version2",11,7,"Female","English","Born and raised in the UK","","No",2,1,"Muffled Speech",2,1,"","There were issues with the videos","","","","When I clicked on the video the screen went white and i didnt know if it was playing because i couldn't hear. It happened 3 times.","",3,"210719_c29","79H",1045.58855566816,"c","aNM","vM","H","0","aNMvM",87,"3",11.5833333333333,"Female"
"587","210719_c29",14956811,535.096590061177,410.469506727847,0,"Is there a devoicing of b?","8L","blame","aM","vM","L","c","aMvM",2.30438712776112,1.76929053769994,1.89391762103327,"8L_aM_vM.mp4",7,"Version2","https://gorilla.sc/uploads/schedule/14956811?filename=8LaMvMmp4-85-2.weba","Block1",72,"/Users/kechun/Documents/GitHub/PerMaSC/Maskanalysis/questionnaire/child randomizer/data_exp_58325-v9_task-tucf.csv",9,"Windows 10","Chrome 92.0.4515.107","Version2",11,7,"Female","English","Born and raised in the UK","","No",2,1,"Muffled Speech",2,1,"","There were issues with the videos","","","","When I clicked on the video the screen went white and i didnt know if it was playing because i couldn't hear. It happened 3 times.","",3,"210719_c29","8L",410.469506727847,"c","aM","vM","L","0","aMvM",72,"3",11.5833333333333,"Female"
"596","210719_c29",14956811,395.066132378758,84.1025907120874,0,"dust","9H","blast","aM","vNM","H","c","aMvNM",2.65720242532453,2.26213629294577,2.57309983461244,"9H_aM_vNM.mp4",7,"Version2","https://gorilla.sc/uploads/schedule/14956811?filename=9HaMvNMmp4-129-2.weba","Block1",114,"/Users/kechun/Documents/GitHub/PerMaSC/Maskanalysis/questionnaire/child randomizer/data_exp_58325-v9_task-tucf.csv",9,"Windows 10","Chrome 92.0.4515.107","Version2",11,7,"Female","English","Born and raised in the UK","","No",2,1,"Muffled Speech",2,1,"","There were issues with the videos","","","","When I clicked on the video the screen went white and i didnt know if it was playing because i couldn't hear. It happened 3 times.","",4,"210719_c29","9H",84.1025907120874,"c","aM","vNM","H","0","aMvNM",114,"4",11.5833333333333,"Female"
"629","210719_c47",14557278,5872.32339925812,5746.13161004244,0,"discard_she siad i don't know","134H","tin","aM","vM","H","c","aMvM",7.8594462806882,1.98712288143008,2.11331467064576,"134H_aM_vM.mp4",7,"Version5","https://gorilla.sc/uploads/schedule/14557278?filename=134HaMvMmp4-29-2.weba","Block1",20,"/Users/kechun/Documents/GitHub/PerMaSC/Maskanalysis/questionnaire/child randomizer/data_exp_58325-v5_task-6srq.csv",5,"Windows 10","Chrome 92.0.4515.107","Version5",10,7,"Male","English","Born and raised in the UK",NA,"Yes sometimes",3,1,"He says he understands his teachers quite well when they wear face masks.",1,2,"Everything worked well",NA,NA,NA,NA,"A couple of times my child pressed next first instead of saying the word.","Very enjoyable",1,"210719_c47","134H",5746.13161004244,"c","aM","vM","H","0","aMvM",20,"1",10.5833333333333,"Male"
"716","210719_c53",15074698,1133.12513107384,803.457538481219,0,"graft","103H","raft","aM","vNM","H","c","aMvNM",4.04368902636396,2.91056389529012,3.24023148788274,"103H_aM_vNM.mp4",7,"Version4","https://gorilla.sc/uploads/schedule/15074698?filename=103HaMvNMmp4-71-2.weba","Block1",60,"/Users/kechun/Documents/GitHub/PerMaSC/Maskanalysis/questionnaire/child randomizer/data_exp_58325-v9_task-gv44.csv",9,"Windows 10","Edge 92.0.902.67","Version4",11,1,"Male","English and another language (bilingual)","Born and raised in the UK","","Yes sometimes",2,2,"",2,1,"Everything worked well","","","","","","",2,"210719_c53","103H",803.457538481219,"c","aM","vNM","H","0","aMvNM",60,"2",11.0833333333333,"Male"
"719","210719_c53",15074698,1517.63149311331,1333.81550351772,0,"self correction","107L","rope","aM","vM","L","c","aMvM",3.66414786362453,2.14651637051122,2.33033236010681,"107L_aM_vM.mp4",7,"Version4","https://gorilla.sc/uploads/schedule/15074698?filename=107LaMvMmp4-39-2.weba","Block1",30,"/Users/kechun/Documents/GitHub/PerMaSC/Maskanalysis/questionnaire/child randomizer/data_exp_58325-v9_task-gv44.csv",9,"Windows 10","Edge 92.0.902.67","Version4",11,1,"Male","English and another language (bilingual)","Born and raised in the UK","","Yes sometimes",2,2,"",2,1,"Everything worked well","","","","","","",1,"210719_c53","107L",1333.81550351772,"c","aM","vM","L","0","aMvM",30,"1",11.0833333333333,"Male"
"727","210719_c53",15074698,902.740141085933,729.785279974754,0,"sick?","114H","silk","aM","vM","H","c","aMvM",2.80074109531893,1.898000954233,2.07095581534418,"114H_aM_vM.mp4",7,"Version4","https://gorilla.sc/uploads/schedule/15074698?filename=114HaMvMmp4-61-2.weba","Block1",50,"/Users/kechun/Documents/GitHub/PerMaSC/Maskanalysis/questionnaire/child randomizer/data_exp_58325-v9_task-gv44.csv",9,"Windows 10","Edge 92.0.902.67","Version4",11,1,"Male","English and another language (bilingual)","Born and raised in the UK","","Yes sometimes",2,2,"",2,1,"Everything worked well","","","","","","",2,"210719_c53","114H",729.785279974754,"c","aM","vM","H","0","aMvM",50,"2",11.0833333333333,"Male"
"731","210719_c53",15074698,557.260347666385,410.270995814645,0,"slink?","118H","sling","aM","vM","H","c","aMvM",2.70865733246904,2.15139698480266,2.2983863366544,"118H_aM_vM.mp4",7,"Version4","https://gorilla.sc/uploads/schedule/15074698?filename=118HaMvMmp4-77-2.weba","Block1",64,"/Users/kechun/Documents/GitHub/PerMaSC/Maskanalysis/questionnaire/child randomizer/data_exp_58325-v9_task-gv44.csv",9,"Windows 10","Edge 92.0.902.67","Version4",11,1,"Male","English and another language (bilingual)","Born and raised in the UK","","Yes sometimes",2,2,"",2,1,"Everything worked well","","","","","","",3,"210719_c53","118H",410.270995814645,"c","aM","vM","H","0","aMvM",64,"3",11.0833333333333,"Male"
"776","210719_c53",15074698,1437.87083107483,1251.18407218156,0,"self-correction","37H","deck","aM","vM","H","c","aMvM",3.01356021130755,1.57568938023272,1.76237613912599,"37H_aM_vM.mp4",7,"Version4","https://gorilla.sc/uploads/schedule/15074698?filename=37HaMvMmp4-59-2.weba","Block1",48,"/Users/kechun/Documents/GitHub/PerMaSC/Maskanalysis/questionnaire/child randomizer/data_exp_58325-v9_task-gv44.csv",9,"Windows 10","Edge 92.0.902.67","Version4",11,1,"Male","English and another language (bilingual)","Born and raised in the UK","","Yes sometimes",2,2,"",2,1,"Everything worked well","","","","","","",2,"210719_c53","37H",1251.18407218156,"c","aM","vM","H","0","aMvM",48,"2",11.0833333333333,"Male"
"782","210719_c53",15074698,1425.78439329557,1288.02516710508,0,"dun?","42L","doll","aM","vNM","L","c","aMvNM",3.34853839576718,1.92275400247161,2.0605132286621,"42L_aM_vNM.mp4",7,"Version4","https://gorilla.sc/uploads/schedule/15074698?filename=42LaMvNMmp4-124-2.weba","Block1",109,"/Users/kechun/Documents/GitHub/PerMaSC/Maskanalysis/questionnaire/child randomizer/data_exp_58325-v9_task-gv44.csv",9,"Windows 10","Edge 92.0.902.67","Version4",11,1,"Male","English and another language (bilingual)","Born and raised in the UK","","Yes sometimes",2,2,"",2,1,"Everything worked well","","","","","","",4,"210719_c53","42L",1288.02516710508,"c","aM","vNM","L","0","aMvNM",109,"4",11.0833333333333,"Male"
"792","210719_c53",15074698,1274.42388566373,1157.30254557365,0,"cannot figure out what the child said","58L","goal","aM","vNM","L","c","aMvNM",3.22829457781972,1.95387069215599,2.07099203224607,"58L_aM_vNM.mp4",7,"Version4","https://gorilla.sc/uploads/schedule/15074698?filename=58LaMvNMmp4-47-2.weba","Block1",36,"/Users/kechun/Documents/GitHub/PerMaSC/Maskanalysis/questionnaire/child randomizer/data_exp_58325-v9_task-gv44.csv",9,"Windows 10","Edge 92.0.902.67","Version4",11,1,"Male","English and another language (bilingual)","Born and raised in the UK","","Yes sometimes",2,2,"",2,1,"Everything worked well","","","","","","",2,"210719_c53","58L",1157.30254557365,"c","aM","vNM","L","0","aMvNM",36,"2",11.0833333333333,"Male"
"853","210719_c66",14758562,711.562047173278,463.960278328028,0,"discard_spoon","121H","spool","aNM","vM","H","c","aNMvM",2.54978819368465,1.83822614651137,2.08582791535662,"121H_aNM_vM.mp4",7,"Version1","https://gorilla.sc/uploads/schedule/14758562?filename=audioFile-11-2.weba","Block1",2,"/Users/kechun/Documents/GitHub/PerMaSC/Maskanalysis/questionnaire/child randomizer/data_exp_58325-v9_task-l3g6.csv",9,"Windows 10","Chrome 92.0.4515.107","Version1",10,5,"Male","English","Born and raised in the UK","","Yes sometimes",4,3,"",1,1,"Everything worked well","","","","","NO","MY CHILD ENJOID",1,"210719_c66","121H",463.960278328028,"c","aNM","vM","H","0","aNMvM",2,"1",10.4166666666667,"Male"
"877","210719_c66",14758562,167.553301566461,-266.112085860439,0,"discard_small chunks","20H","chunks","aM","vNM","H","c","aMvNM",2.1852565055337,2.01770320396724,2.45136859139414,"20H_aM_vNM.mp4",7,"Version1","https://gorilla.sc/uploads/schedule/14758562?filename=audioFile-71-2.weba","Block1",60,"/Users/kechun/Documents/GitHub/PerMaSC/Maskanalysis/questionnaire/child randomizer/data_exp_58325-v9_task-l3g6.csv",9,"Windows 10","Chrome 92.0.4515.107","Version1",10,5,"Male","English","Born and raised in the UK","","Yes sometimes",4,3,"",1,1,"Everything worked well","","","","","NO","MY CHILD ENJOID",2,"210719_c66","20H",-266.112085860439,"c","aM","vNM","H","0","aMvNM",60,"2",10.4166666666667,"Male"
"885","210719_c66",14758562,402.222493409793,70.5686533840431,0,"discard_tops","28H","cops","aM","vNM","H","c","aMvNM",2.51187553207927,2.10965303866948,2.44130687869523,"28H_aM_vNM.mp4",7,"Version1","https://gorilla.sc/uploads/schedule/14758562?filename=audioFile-116-2.weba","Block1",101,"/Users/kechun/Documents/GitHub/PerMaSC/Maskanalysis/questionnaire/child randomizer/data_exp_58325-v9_task-l3g6.csv",9,"Windows 10","Chrome 92.0.4515.107","Version1",10,5,"Male","English","Born and raised in the UK","","Yes sometimes",4,3,"",1,1,"Everything worked well","","","","","NO","MY CHILD ENJOID",4,"210719_c66","28H",70.5686533840431,"c","aM","vNM","H","0","aMvNM",101,"4",10.4166666666667,"Male"
"886","210719_c66",14758562,271.289343382606,161.218673447966,0,"discard_bar","2H","barn","aM","vM","H","c","aMvM",2.21779961358249,1.94651027019988,2.05658094013452,"2H_aM_vM.mp4",7,"Version1","https://gorilla.sc/uploads/schedule/14758562?filename=audioFile-99-2.weba","Block1",86,"/Users/kechun/Documents/GitHub/PerMaSC/Maskanalysis/questionnaire/child randomizer/data_exp_58325-v9_task-l3g6.csv",9,"Windows 10","Chrome 92.0.4515.107","Version1",10,5,"Male","English","Born and raised in the UK","","Yes sometimes",4,3,"",1,1,"Everything worked well","","","","","NO","MY CHILD ENJOID",3,"210719_c66","2H",161.218673447966,"c","aM","vM","H","0","aMvM",86,"3",10.4166666666667,"Male"
"893","210719_c66",14758562,382.956990625933,280.544788244983,0,"discard_deaf","38H","den","aNM","vNM","H","c","aNMvNM",2.82901541858362,2.44605842795769,2.54847063033864,"38H_aNM_vNM.mp4",7,"Version1","https://gorilla.sc/uploads/schedule/14758562?filename=audioFile-27-2.weba","Block1",18,"/Users/kechun/Documents/GitHub/PerMaSC/Maskanalysis/questionnaire/child randomizer/data_exp_58325-v9_task-l3g6.csv",9,"Windows 10","Chrome 92.0.4515.107","Version1",10,5,"Male","English","Born and raised in the UK","","Yes sometimes",4,3,"",1,1,"Everything worked well","","","","","NO","MY CHILD ENJOID",1,"210719_c66","38H",280.544788244983,"c","aNM","vNM","H","0","aNMvNM",18,"1",10.4166666666667,"Male"
"904","210719_c66",14758562,588.010332692647,328.213871052417,0,"discard_flop","51H","flock","aM","vM","H","c","aMvM",2.71337526800335,2.1253649353107,2.38516139695093,"51H_aM_vM.mp4",7,"Version1","https://gorilla.sc/uploads/schedule/14758562?filename=audioFile-33-2.weba","Block1",24,"/Users/kechun/Documents/GitHub/PerMaSC/Maskanalysis/questionnaire/child randomizer/data_exp_58325-v9_task-l3g6.csv",9,"Windows 10","Chrome 92.0.4515.107","Version1",10,5,"Male","English","Born and raised in the UK","","Yes sometimes",4,3,"",1,1,"Everything worked well","","","","","NO","MY CHILD ENJOID",1,"210719_c66","51H",328.213871052417,"c","aM","vM","H","0","aMvM",24,"1",10.4166666666667,"Male"
"924","210719_c66",14758562,544.772590792543,327.729138411603,0,"discard_tin","74L","kick","aNM","vNM","L","c","aNMvNM",2.99625479179667,2.45148220100413,2.66852565338507,"74L_aNM_vNM.mp4",7,"Version1","https://gorilla.sc/uploads/schedule/14758562?filename=audioFile-67-2.weba","Block1",56,"/Users/kechun/Documents/GitHub/PerMaSC/Maskanalysis/questionnaire/child randomizer/data_exp_58325-v9_task-l3g6.csv",9,"Windows 10","Chrome 92.0.4515.107","Version1",10,5,"Male","English","Born and raised in the UK","","Yes sometimes",4,3,"",1,1,"Everything worked well","","","","","NO","MY CHILD ENJOID",2,"210719_c66","74L",327.729138411603,"c","aNM","vNM","L","0","aNMvNM",56,"2",10.4166666666667,"Male"
"940","210719_c66",14758562,350.815165730212,41.7650710333217,0,"discard_not","91L","notch","aM","vNM","L","c","aMvNM",2.54207478610172,2.19125962037151,2.5003097150684,"91L_aM_vNM.mp4",7,"Version1","https://gorilla.sc/uploads/schedule/14758562?filename=audioFile-91-2.weba","Block1",78,"/Users/kechun/Documents/GitHub/PerMaSC/Maskanalysis/questionnaire/child randomizer/data_exp_58325-v9_task-l3g6.csv",9,"Windows 10","Chrome 92.0.4515.107","Version1",10,5,"Male","English","Born and raised in the UK","","Yes sometimes",4,3,"",1,1,"Everything worked well","","","","","NO","MY CHILD ENJOID",3,"210719_c66","91L",41.7650710333217,"c","aM","vNM","L","0","aMvNM",78,"3",10.4166666666667,"Male"
"979","210719_c71",14549435,752.876271881729,548.405438548439,0,"unsure_thrat?","133H","throat","aNM","vM","H","c","aNMvM",2.86555983681943,2.1126835649377,2.31715439827099,"133H_aNM_vM.mp4",7,"Version5","https://gorilla.sc/uploads/schedule/14549435?filename=133HaNMvMmp4-86-2.weba","Block1",73,"/Users/kechun/Documents/GitHub/PerMaSC/Maskanalysis/questionnaire/child randomizer/data_exp_58325-v5_task-6srq.csv",5,"Chromium OS 13904.77.0","Chrome 91.0.4472.147","Version5",11,3,"Female","English and another language (bilingual)","Born and raised in the UK",NA,"No",2,3,"She can hear well but because of the face mask blocking direct speech coming through, it's easy to find that normal speech as become muffled and difficult to hear. It makes listening a harder task.",2,1,"Everything worked well",NA,NA,NA,NA,"N/A","It was done well and efficiently, and both me and my daughter enjoyed it. In the future, if there are any online research opportunities like this, we'd be interested to take part!",3,"210719_c71","133H",548.405438548439,"c","aNM","vM","H","0","aNMvM",73,"3",11.25,"Female"
"1002","210719_c71",14549435,1340.87504279276,1241.69080366233,0,"varn","2L","barn","aM","vM","L","c","aMvM",3.19613359495555,1.85525855216279,1.95444279129322,"2L_aM_vM.mp4",7,"Version5","https://gorilla.sc/uploads/schedule/14549435?filename=2LaMvMmp4-92-2.weba","Block1",79,"/Users/kechun/Documents/GitHub/PerMaSC/Maskanalysis/questionnaire/child randomizer/data_exp_58325-v5_task-6srq.csv",5,"Chromium OS 13904.77.0","Chrome 91.0.4472.147","Version5",11,3,"Female","English and another language (bilingual)","Born and raised in the UK",NA,"No",2,3,"She can hear well but because of the face mask blocking direct speech coming through, it's easy to find that normal speech as become muffled and difficult to hear. It makes listening a harder task.",2,1,"Everything worked well",NA,NA,NA,NA,"N/A","It was done well and efficiently, and both me and my daughter enjoyed it. In the future, if there are any online research opportunities like this, we'd be interested to take part!",3,"210719_c71","2L",1241.69080366233,"c","aM","vM","L","0","aMvM",79,"3",11.25,"Female"
"1015","210719_c71",14549435,2236.85810967433,1987.6887914925,0,"dark","43L","dove","aM","vM","L","c","aMvM",4.22244318425859,1.98558507458426,2.23475439276609,"43L_aM_vM.mp4",7,"Version5","https://gorilla.sc/uploads/schedule/14549435?filename=43LaMvMmp4-17-2.weba","Block1",8,"/Users/kechun/Documents/GitHub/PerMaSC/Maskanalysis/questionnaire/child randomizer/data_exp_58325-v5_task-6srq.csv",5,"Chromium OS 13904.77.0","Chrome 91.0.4472.147","Version5",11,3,"Female","English and another language (bilingual)","Born and raised in the UK",NA,"No",2,3,"She can hear well but because of the face mask blocking direct speech coming through, it's easy to find that normal speech as become muffled and difficult to hear. It makes listening a harder task.",2,1,"Everything worked well",NA,NA,NA,NA,"N/A","It was done well and efficiently, and both me and my daughter enjoyed it. In the future, if there are any online research opportunities like this, we'd be interested to take part!",1,"210719_c71","43L",1987.6887914925,"c","aM","vM","L","0","aMvM",8,"1",11.25,"Female"
"1098","210723_a76",14582654,1000.90347259005,867.791439790726,0,"tim?","134L","tin","aM","vM","L","a","aMvM",2.78100131339728,1.78009784080723,1.91320987360655,"134L_aM_vM.mp4",7,"Version8","https://gorilla.sc/uploads/schedule/14582654?filename=134LaMvMmp4-132-2.weba","Block1",117,"/Users/kechun/Documents/GitHub/PerMaSC/Maskanalysis/questionnaire/adult randomizer/data_exp_58324-v8_task-fbmh.csv",8,"Windows 10","Chrome 92.0.4515.107","Version8",21,8,"Female","English","Born and raised in the UK",NA,"Yes sometimes",3,1,"Sometimes there is absolutely no problem understanding and sometimes it is quite hard.",2,1,"Everything worked well","",NA,"",NA,"Sometimes it took a while to load my responses.","I really enjoyed doing it - than you so much!",4,"210723_a76","134L",867.791439790726,"a","aM","vM","L","0","aMvM",117,"4",21.6666666666667,"Female"
"1108","210723_a76",14582654,245.858816558851,13.3788579818614,0,"car?_orcutoff?","17L","calf","aM","vNM","L","a","aMvNM",2.96930361011877,2.72344479355992,2.95592475213691,"17L_aM_vNM.mp4",7,"Version8","https://gorilla.sc/uploads/schedule/14582654?filename=17LaMvNMmp4-103-2.weba","Block1",90,"/Users/kechun/Documents/GitHub/PerMaSC/Maskanalysis/questionnaire/adult randomizer/data_exp_58324-v8_task-fbmh.csv",8,"Windows 10","Chrome 92.0.4515.107","Version8",21,8,"Female","English","Born and raised in the UK",NA,"Yes sometimes",3,1,"Sometimes there is absolutely no problem understanding and sometimes it is quite hard.",2,1,"Everything worked well","",NA,"",NA,"Sometimes it took a while to load my responses.","I really enjoyed doing it - than you so much!",3,"210723_a76","17L",13.3788579818614,"a","aM","vNM","L","0","aMvNM",90,"3",21.6666666666667,"Female"
"1123","210723_a76",14582654,535.736507364934,337.008092064394,0,"cop?","32L","crop","aNM","vM","L","a","aNMvM",2.88027042774237,2.34453392037744,2.54326233567798,"32L_aNM_vM.mp4",7,"Version8","https://gorilla.sc/uploads/schedule/14582654?filename=32LaNMvMmp4-38-2.weba","Block1",29,"/Users/kechun/Documents/GitHub/PerMaSC/Maskanalysis/questionnaire/adult randomizer/data_exp_58324-v8_task-fbmh.csv",8,"Windows 10","Chrome 92.0.4515.107","Version8",21,8,"Female","English","Born and raised in the UK",NA,"Yes sometimes",3,1,"Sometimes there is absolutely no problem understanding and sometimes it is quite hard.",2,1,"Everything worked well","",NA,"",NA,"Sometimes it took a while to load my responses.","I really enjoyed doing it - than you so much!",1,"210723_a76","32L",337.008092064394,"a","aNM","vM","L","0","aNMvM",29,"1",21.6666666666667,"Female"
"1146","210723_a76",14582654,1835.34566627006,1698.4841211312,0,"gran","60L","grin","aM","vM","L","a","aMvM",4.08848131816913,2.25313565189907,2.38999719703793,"60L_aM_vM.mp4",7,"Version8","https://gorilla.sc/uploads/schedule/14582654?filename=60LaMvMmp4-20-2.weba","Block1",11,"/Users/kechun/Documents/GitHub/PerMaSC/Maskanalysis/questionnaire/adult randomizer/data_exp_58324-v8_task-fbmh.csv",8,"Windows 10","Chrome 92.0.4515.107","Version8",21,8,"Female","English","Born and raised in the UK",NA,"Yes sometimes",3,1,"Sometimes there is absolutely no problem understanding and sometimes it is quite hard.",2,1,"Everything worked well","",NA,"",NA,"Sometimes it took a while to load my responses.","I really enjoyed doing it - than you so much!",1,"210723_a76","60L",1698.4841211312,"a","aM","vM","L","0","aMvM",11,"1",21.6666666666667,"Female"
"1150","210723_a76",14582654,567.936926837117,400.795253653287,0,"ahead","64L","hen","aM","vM","L","a","aMvM",2.69478102512355,2.12684409828643,2.29398577147026,"64L_aM_vM.mp4",7,"Version8","https://gorilla.sc/uploads/schedule/14582654?filename=64LaMvMmp4-107-2.weba","Block1",92,"/Users/kechun/Documents/GitHub/PerMaSC/Maskanalysis/questionnaire/adult randomizer/data_exp_58324-v8_task-fbmh.csv",8,"Windows 10","Chrome 92.0.4515.107","Version8",21,8,"Female","English","Born and raised in the UK",NA,"Yes sometimes",3,1,"Sometimes there is absolutely no problem understanding and sometimes it is quite hard.",2,1,"Everything worked well","",NA,"",NA,"Sometimes it took a while to load my responses.","I really enjoyed doing it - than you so much!",4,"210723_a76","64L",400.795253653287,"a","aM","vM","L","0","aMvM",92,"4",21.6666666666667,"Female"
"1166","210723_a76",14582654,247.340286215432,32.2002885496921,0,"clock? Alice's k?","80H","lock","aNM","vM","H","a","aNMvM",2.37673463269766,2.12939434648223,2.34453434414797,"80H_aNM_vM.mp4",7,"Version8","https://gorilla.sc/uploads/schedule/14582654?filename=80HaNMvMmp4-35-2.weba","Block1",26,"/Users/kechun/Documents/GitHub/PerMaSC/Maskanalysis/questionnaire/adult randomizer/data_exp_58324-v8_task-fbmh.csv",8,"Windows 10","Chrome 92.0.4515.107","Version8",21,8,"Female","English","Born and raised in the UK",NA,"Yes sometimes",3,1,"Sometimes there is absolutely no problem understanding and sometimes it is quite hard.",2,1,"Everything worked well","",NA,"",NA,"Sometimes it took a while to load my responses.","I really enjoyed doing it - than you so much!",1,"210723_a76","80H",32.2002885496921,"a","aNM","vM","H","0","aNMvM",26,"1",21.6666666666667,"Female"
"1254","210723_a78",14657603,338.213750497384,237.202083830694,0,"plane","50L","flame","aNM","vNM","L","a","aNMvNM",2.7149564645653,2.37674271406792,2.47775438073461,"50L_aNM_vNM.mp4",7,"Version7","https://gorilla.sc/uploads/schedule/14657603?filename=50LaNMvNMmp4-119-2.weba","Block1",104,"/Users/kechun/Documents/GitHub/PerMaSC/Maskanalysis/questionnaire/adult randomizer/data_exp_58324-v9_task-tmfe.csv",9,"Windows 10","Chrome 92.0.4515.107","Version7",22,3,"Female","English","Born and raised in the UK","","Yes sometimes",3,4,"",5,3,"Everything worked well","","","","","","",4,"210723_a78","50L",237.202083830694,"a","aNM","vNM","L","0","aNMvNM",104,"4",22.25,"Female"
"1258","210723_a78",14657603,685.62773464373,660.94559178657,0,"blue","57L","glue","aM","vM","L","a","aMvM",2.84589275715382,2.16026502251009,2.18494716536725,"57L_aM_vM.mp4",7,"Version7","https://gorilla.sc/uploads/schedule/14657603?filename=57LaMvMmp4-131-2.weba","Block1",116,"/Users/kechun/Documents/GitHub/PerMaSC/Maskanalysis/questionnaire/adult randomizer/data_exp_58324-v9_task-tmfe.csv",9,"Windows 10","Chrome 92.0.4515.107","Version7",22,3,"Female","English","Born and raised in the UK","","Yes sometimes",3,4,"",5,3,"Everything worked well","","","","","","",4,"210723_a78","57L",660.94559178657,"a","aM","vM","L","0","aMvM",116,"4",22.25,"Female"
"1289","210723_a78",14657603,396.543076457328,310.889484136778,0,"maim?","8L","blame","aNM","vM","L","a","aNMvM",2.1386377790613,1.74209470260397,1.82774829492452,"8L_aNM_vM.mp4",7,"Version7","https://gorilla.sc/uploads/schedule/14657603?filename=8LaNMvMmp4-30-2.weba","Block1",21,"/Users/kechun/Documents/GitHub/PerMaSC/Maskanalysis/questionnaire/adult randomizer/data_exp_58324-v9_task-tmfe.csv",9,"Windows 10","Chrome 92.0.4515.107","Version7",22,3,"Female","English","Born and raised in the UK","","Yes sometimes",3,4,"",5,3,"Everything worked well","","","","","","",1,"210723_a78","8L",310.889484136778,"a","aNM","vM","L","0","aNMvM",21,"1",22.25,"Female"
"1291","210723_a78",14657603,681.371566928136,372.321472231246,0,"nokch?","91L","notch","aM","vM","L","a","aMvM",2.87263118729965,2.19125962037151,2.5003097150684,"91L_aM_vM.mp4",7,"Version7","https://gorilla.sc/uploads/schedule/14657603?filename=91LaMvMmp4-130-2.weba","Block1",115,"/Users/kechun/Documents/GitHub/PerMaSC/Maskanalysis/questionnaire/adult randomizer/data_exp_58324-v9_task-tmfe.csv",9,"Windows 10","Chrome 92.0.4515.107","Version7",22,3,"Female","English","Born and raised in the UK","","Yes sometimes",3,4,"",5,3,"Everything worked well","","","","","","",4,"210723_a78","91L",372.321472231246,"a","aM","vM","L","0","aMvM",115,"4",22.25,"Female"
"1359","210723_a79",14566634,344.198019071528,211.080372012688,0,"purt?","35L","curb","aM","vM","L","a","aMvM",2.57165826841562,2.22746024934409,2.36057789640293,"35L_aM_vM.mp4",7,"Version5","https://gorilla.sc/uploads/schedule/14566634?filename=35LaMvMmp4-108-2.weba","Block1",93,"/Users/kechun/Documents/GitHub/PerMaSC/Maskanalysis/questionnaire/adult randomizer/data_exp_58324-v8_task-klg9.csv",8,"Windows 10","Chrome 91.0.4472.124","Version5",21,5,"Male","English","Born and raised in the UK",NA,"Yes sometimes",4,3,"",2,2,"","There were issues with the videos",NA,"",NA,"Occasionally (maybe four or five times throughout the experiment) the video froze before the end, with audio unaffected. After this, the 'OK' button took a while to appear - so the recordings of my speech with a long gap of silence will be those for which the video was affected.","",4,"210723_a79","35L",211.080372012688,"a","aM","vM","L","0","aMvM",93,"4",21.4166666666667,"Male"
"1366","210723_a79",14566634,394.220082995094,316.642911942424,0,"though?","42L","doll","aNM","vM","L","a","aNMvM",2.36503314220867,1.97081305921358,2.04839023026625,"42L_aNM_vM.mp4",7,"Version5","https://gorilla.sc/uploads/schedule/14566634?filename=42LaNMvMmp4-127-2.weba","Block1",112,"/Users/kechun/Documents/GitHub/PerMaSC/Maskanalysis/questionnaire/adult randomizer/data_exp_58324-v8_task-klg9.csv",8,"Windows 10","Chrome 91.0.4472.124","Version5",21,5,"Male","English","Born and raised in the UK",NA,"Yes sometimes",4,3,"",2,2,"","There were issues with the videos",NA,"",NA,"Occasionally (maybe four or five times throughout the experiment) the video froze before the end, with audio unaffected. After this, the 'OK' button took a while to appear - so the recordings of my speech with a long gap of silence will be those for which the video was affected.","",4,"210723_a79","42L",316.642911942424,"a","aNM","vM","L","0","aNMvM",112,"4",21.4166666666667,"Male"
"1367","210723_a79",14566634,509.50382367238,260.33450549055,0,"duck?","43L","dove","aM","vM","L","a","aMvM",2.49508889825664,1.98558507458426,2.23475439276609,"43L_aM_vM.mp4",7,"Version5","https://gorilla.sc/uploads/schedule/14566634?filename=43LaMvMmp4-52-2.weba","Block1",41,"/Users/kechun/Documents/GitHub/PerMaSC/Maskanalysis/questionnaire/adult randomizer/data_exp_58324-v8_task-klg9.csv",8,"Windows 10","Chrome 91.0.4472.124","Version5",21,5,"Male","English","Born and raised in the UK",NA,"Yes sometimes",4,3,"",2,2,"","There were issues with the videos",NA,"",NA,"Occasionally (maybe four or five times throughout the experiment) the video froze before the end, with audio unaffected. After this, the 'OK' button took a while to appear - so the recordings of my speech with a long gap of silence will be those for which the video was affected.","",2,"210723_a79","43L",260.33450549055,"a","aM","vM","L","0","aMvM",41,"2",21.4166666666667,"Male"
"1379","210723_a79",14566634,676.831624707059,552.869819151509,0,"grunt?","60H","grin","aM","vM","H","a","aMvM",3.02911821372851,2.35228658902145,2.476248394577,"60H_aM_vM.mp4",7,"Version5","https://gorilla.sc/uploads/schedule/14566634?filename=60HaMvMmp4-87-2.weba","Block1",74,"/Users/kechun/Documents/GitHub/PerMaSC/Maskanalysis/questionnaire/adult randomizer/data_exp_58324-v8_task-klg9.csv",8,"Windows 10","Chrome 91.0.4472.124","Version5",21,5,"Male","English","Born and raised in the UK",NA,"Yes sometimes",4,3,"",2,2,"","There were issues with the videos",NA,"",NA,"Occasionally (maybe four or five times throughout the experiment) the video froze before the end, with audio unaffected. After this, the 'OK' button took a while to appear - so the recordings of my speech with a long gap of silence will be those for which the video was affected.","",3,"210723_a79","60H",552.869819151509,"a","aM","vM","H","0","aMvM",74,"3",21.4166666666667,"Male"
"1382","210723_a79",14566634,280.218600890582,146.685093946132,0,"hand","64H","hen","aM","vM","H","a","aMvM",2.33681965628841,2.05660105539783,2.19013456234228,"64H_aM_vM.mp4",7,"Version5","https://gorilla.sc/uploads/schedule/14566634?filename=64HaMvMmp4-51-2.weba","Block1",40,"/Users/kechun/Documents/GitHub/PerMaSC/Maskanalysis/questionnaire/adult randomizer/data_exp_58324-v8_task-klg9.csv",8,"Windows 10","Chrome 91.0.4472.124","Version5",21,5,"Male","English","Born and raised in the UK",NA,"Yes sometimes",4,3,"",2,2,"","There were issues with the videos",NA,"",NA,"Occasionally (maybe four or five times throughout the experiment) the video froze before the end, with audio unaffected. After this, the 'OK' button took a while to appear - so the recordings of my speech with a long gap of silence will be those for which the video was affected.","",2,"210723_a79","64H",146.685093946132,"a","aM","vM","H","0","aMvM",40,"2",21.4166666666667,"Male"
"1525","210725_a118",14685140,1561.10705382326,1400.20108791413,0,"mud","89L","mug","aM","vNM","L","a","aMvNM",4.14138729797395,2.58028024415069,2.74118621005982,"89L_aM_vNM.mp4",7,"Version3","https://gorilla.sc/uploads/schedule/14685140?filename=audioFile-115-2.weba","Block1",100,"/Users/kechun/Documents/GitHub/PerMaSC/Maskanalysis/questionnaire/adult randomizer/data_exp_58324-v9_task-75wy.csv",9,"Mac OS 10.15","Firefox 90.0","Version3",50,11,"Male","English","Born and raised in the UK","","Yes sometimes",3,3,"",2,2,"Everything worked well","There were issues with the videos","","","","Sometimes the video box with the arrow on was smaller and then the video appeared in the bottom right of the browser instead of in the middle, until the Next button appeared, when it went back to normal. I could always see the video, but it wasn't always in the same place.","",4,"210725_a118","89L",1400.20108791413,"a","aM","vNM","L","0","aMvNM",100,"4",50.9166666666667,"Male"
"1532","210725_a118",14685140,1375.92379439186,1236.78474838882,0,"pearl","96L","pile","aM","vM","L","a","aMvM",3.49022884278693,2.11430504839507,2.25344409439811,"96L_aM_vM.mp4",7,"Version3","https://gorilla.sc/uploads/schedule/14685140?filename=audioFile-12-2.weba","Block1",3,"/Users/kechun/Documents/GitHub/PerMaSC/Maskanalysis/questionnaire/adult randomizer/data_exp_58324-v9_task-75wy.csv",9,"Mac OS 10.15","Firefox 90.0","Version3",50,11,"Male","English","Born and raised in the UK","","Yes sometimes",3,3,"",2,2,"Everything worked well","There were issues with the videos","","","","Sometimes the video box with the arrow on was smaller and then the video appeared in the bottom right of the browser instead of in the middle, until the Next button appeared, when it went back to normal. I could always see the video, but it wasn't always in the same place.","",1,"210725_a118","96L",1236.78474838882,"a","aM","vM","L","0","aMvM",3,"1",50.9166666666667,"Male"
"1546","210725_a120",14668484,1448.08112761051,1235.83261570581,0,"sleeves","111L","seeds","aM","vM","L","a","aMvM",3.15646301177502,1.70838188416451,1.92063039606921,"111L_aM_vM.mp4",7,"Version4","https://gorilla.sc/uploads/schedule/14668484?filename=111LaMvMmp4-110-2.weba","Block1",95,"/Users/kechun/Documents/GitHub/PerMaSC/Maskanalysis/questionnaire/adult randomizer/data_exp_58324-v9_task-7xnq.csv",9,"Windows 10","Chrome 92.0.4515.107","Version4",20,9,"Male","English","Born and raised in the UK","","Yes sometimes",3,3,"",3,2,"","There were issues with the videos","","","","Around 3 videos lagged whilst playing","",4,"210725_a120","111L",1235.83261570581,"a","aM","vM","L","0","aMvM",95,"4",20.75,"Male"
"1556","210725_a120",14668484,1582.21946674489,1360.39657942097,0,"I dont know","121L","spool","aNM","vNM","L","a","aNMvNM",3.67533371992754,2.09311425318265,2.31493714050657,"121L_aNM_vNM.mp4",7,"Version4","https://gorilla.sc/uploads/schedule/14668484?filename=121LaNMvNMmp4-84-2.weba","Block1",71,"/Users/kechun/Documents/GitHub/PerMaSC/Maskanalysis/questionnaire/adult randomizer/data_exp_58324-v9_task-7xnq.csv",9,"Windows 10","Chrome 92.0.4515.107","Version4",20,9,"Male","English","Born and raised in the UK","","Yes sometimes",3,3,"",3,2,"","There were issues with the videos","","","","Around 3 videos lagged whilst playing","",3,"210725_a120","121L",1360.39657942097,"a","aNM","vNM","L","0","aNMvNM",71,"3",20.75,"Male"
"1581","210725_a120",14668484,1519.08103068611,1336.23309823661,0,"I dont know","21L","clerk","aM","vM","L","a","aMvM",3.67793384906544,2.15885281837933,2.34170075082883,"21L_aM_vM.mp4",7,"Version4","https://gorilla.sc/uploads/schedule/14668484?filename=21LaMvMmp4-89-2.weba","Block1",76,"/Users/kechun/Documents/GitHub/PerMaSC/Maskanalysis/questionnaire/adult randomizer/data_exp_58324-v9_task-7xnq.csv",9,"Windows 10","Chrome 92.0.4515.107","Version4",20,9,"Male","English","Born and raised in the UK","","Yes sometimes",3,3,"",3,2,"","There were issues with the videos","","","","Around 3 videos lagged whilst playing","",3,"210725_a120","21L",1336.23309823661,"a","aM","vM","L","0","aMvM",76,"3",20.75,"Male"
"1593","210725_a120",14668484,980.023975561307,796.825827413177,0,"voiced p","32H","crop","aNM","vNM","H","a","aNMvNM",3.10801439761899,2.12799042205768,2.31118857020581,"32H_aNM_vNM.mp4",7,"Version4","https://gorilla.sc/uploads/schedule/14668484?filename=32HaNMvNMmp4-14-2.weba","Block1",5,"/Users/kechun/Documents/GitHub/PerMaSC/Maskanalysis/questionnaire/adult randomizer/data_exp_58324-v9_task-7xnq.csv",9,"Windows 10","Chrome 92.0.4515.107","Version4",20,9,"Male","English","Born and raised in the UK","","Yes sometimes",3,3,"",3,2,"","There were issues with the videos","","","","Around 3 videos lagged whilst playing","",1,"210725_a120","32H",796.825827413177,"a","aNM","vNM","H","0","aNMvNM",5,"1",20.75,"Male"
"1594","210725_a120",14668484,1591.16944318467,1471.26110985132,0,"crowns","33L","crown","aM","vM","L","a","aMvM",3.54932110894134,1.95815166575667,2.07805999909002,"33L_aM_vM.mp4",7,"Version4","https://gorilla.sc/uploads/schedule/14668484?filename=33LaMvMmp4-122-2.weba","Block1",107,"/Users/kechun/Documents/GitHub/PerMaSC/Maskanalysis/questionnaire/adult randomizer/data_exp_58324-v9_task-7xnq.csv",9,"Windows 10","Chrome 92.0.4515.107","Version4",20,9,"Male","English","Born and raised in the UK","","Yes sometimes",3,3,"",3,2,"","There were issues with the videos","","","","Around 3 videos lagged whilst playing","",4,"210725_a120","33L",1471.26110985132,"a","aM","vM","L","0","aMvM",107,"4",20.75,"Male"
"1604","210725_a120",14668484,1176.20411432804,997.34355057748,0,"I dont know","43L","dove","aNM","vM","L","a","aNMvM",3.15567469074071,1.97947057641267,2.15833114016323,"43L_aNM_vM.mp4",7,"Version4","https://gorilla.sc/uploads/schedule/14668484?filename=43LaNMvMmp4-119-2.weba","Block1",104,"/Users/kechun/Documents/GitHub/PerMaSC/Maskanalysis/questionnaire/adult randomizer/data_exp_58324-v9_task-7xnq.csv",9,"Windows 10","Chrome 92.0.4515.107","Version4",20,9,"Male","English","Born and raised in the UK","","Yes sometimes",3,3,"",3,2,"","There were issues with the videos","","","","Around 3 videos lagged whilst playing","",4,"210725_a120","43L",997.34355057748,"a","aNM","vM","L","0","aNMvM",104,"4",20.75,"Male"
"1606","210725_a120",14668484,2075.08794894124,1969.89319585481,0,"self-correction and I dont know","47H","drum","aM","vM","H","a","aMvM",4.26513983333325,2.19005188439201,2.29524663747844,"47H_aM_vM.mp4",7,"Version4","https://gorilla.sc/uploads/schedule/14668484?filename=47HaMvMmp4-56-2.weba","Block1",45,"/Users/kechun/Documents/GitHub/PerMaSC/Maskanalysis/questionnaire/adult randomizer/data_exp_58324-v9_task-7xnq.csv",9,"Windows 10","Chrome 92.0.4515.107","Version4",20,9,"Male","English","Born and raised in the UK","","Yes sometimes",3,3,"",3,2,"","There were issues with the videos","","","","Around 3 videos lagged whilst playing","",2,"210725_a120","47H",1969.89319585481,"a","aM","vM","H","0","aMvM",45,"2",20.75,"Male"
"1618","210725_a120",14668484,1233.63660449672,1159.76283638076,0,"I dont know","62L","hay","aM","vM","L","a","aMvM",2.89240891111109,1.65877230661437,1.73264607473033,"62L_aM_vM.mp4",7,"Version4","https://gorilla.sc/uploads/schedule/14668484?filename=62LaMvMmp4-77-2.weba","Block1",64,"/Users/kechun/Documents/GitHub/PerMaSC/Maskanalysis/questionnaire/adult randomizer/data_exp_58324-v9_task-7xnq.csv",9,"Windows 10","Chrome 92.0.4515.107","Version4",20,9,"Male","English","Born and raised in the UK","","Yes sometimes",3,3,"",3,2,"","There were issues with the videos","","","","Around 3 videos lagged whilst playing","",3,"210725_a120","62L",1159.76283638076,"a","aM","vM","L","0","aMvM",64,"3",20.75,"Male"
"1630","210725_a120",14668484,1569.52923638525,1360.60810543288,0,"I dont know","74L","kick","aM","vM","L","a","aMvM",3.98238045802461,2.41285122163936,2.62177235259173,"74L_aM_vM.mp4",7,"Version4","https://gorilla.sc/uploads/schedule/14668484?filename=74LaMvMmp4-133-2.weba","Block1",118,"/Users/kechun/Documents/GitHub/PerMaSC/Maskanalysis/questionnaire/adult randomizer/data_exp_58324-v9_task-7xnq.csv",9,"Windows 10","Chrome 92.0.4515.107","Version4",20,9,"Male","English","Born and raised in the UK","","Yes sometimes",3,3,"",3,2,"","There were issues with the videos","","","","Around 3 videos lagged whilst playing","",4,"210725_a120","74L",1360.60810543288,"a","aM","vM","L","0","aMvM",118,"4",20.75,"Male"
"1703","210725_a139",14758059,837.424628465978,583.952886064478,0,"clerk?","23H","clock","aNM","vM","H","a","aNMvM",2.61130758674881,1.77388295828283,2.02735470068433,"23H_aNM_vM.mp4",7,"Version4","https://gorilla.sc/uploads/schedule/14758059?filename=audioFile-50-2.weba","Block1",39,"/Users/kechun/Documents/GitHub/PerMaSC/Maskanalysis/questionnaire/adult randomizer/data_exp_58324-v9_task-7xnq.csv",9,"Mac OS 10.15.7","Chrome 91.0.4472.114","Version4",28,11,"Female","English","Born and raised in the UK","","Yes sometimes",2,1,"",1,1,"Everything worked well","","","","","","",2,"210725_a139","23H",583.952886064478,"a","aNM","vM","H","0","aNMvM",39,"2",28.9166666666667,"Female"
"1961","210725_a156",14930256,1004.81313027311,685.162041684439,0,"'folks'","53H","frogs","aM","vM","H","a","aMvM",2.71268834960634,1.70787521933323,2.0275263079219,"53H_aM_vM.mp4",7,"Version8","https://gorilla.sc/uploads/schedule/14930256?filename=53HaMvMmp4-132-2.weba","Block1",115,"/Users/kechun/Documents/GitHub/PerMaSC/Maskanalysis/questionnaire/adult randomizer/data_exp_58324-v9_task-fbmh.csv",9,"Windows 10","Chrome 92.0.4515.131","Version8",27,6,"Male","English","Born and raised in the UK","","No",2,1,"Usually I can understand others without any issue but some have struggled to understand me while I've worn a mask",2,2,"Everything worked well","","","","","","",4,"210725_a156","53H",685.162041684439,"a","aM","vM","H","0","aMvM",115,"4",27.5,"Male"
"1969","210725_a156",14930256,994.930271688158,827.788598504328,0,"'hat'","64L","hen","aM","vM","L","a","aMvM",3.12177436997459,2.12684409828643,2.29398577147026,"64L_aM_vM.mp4",7,"Version8","https://gorilla.sc/uploads/schedule/14930256?filename=64LaMvMmp4-63-2.weba","Block1",50,"/Users/kechun/Documents/GitHub/PerMaSC/Maskanalysis/questionnaire/adult randomizer/data_exp_58324-v9_task-fbmh.csv",9,"Windows 10","Chrome 92.0.4515.131","Version8",27,6,"Male","English","Born and raised in the UK","","No",2,1,"Usually I can understand others without any issue but some have struggled to understand me while I've worn a mask",2,2,"Everything worked well","","","","","","",2,"210725_a156","64L",827.788598504328,"a","aM","vM","L","0","aMvM",50,"2",27.5,"Male"
"1976","210725_a156",14930256,3742.72506503598,3472.39666867739,0,"'cheese'","72L","juice","aM","vM","L","a","aMvM",5.89707079031865,2.15434572528267,2.42467412164126,"72L_aM_vM.mp4",7,"Version8","https://gorilla.sc/uploads/schedule/14930256?filename=72LaMvMmp4-128-2.weba","Block1",111,"/Users/kechun/Documents/GitHub/PerMaSC/Maskanalysis/questionnaire/adult randomizer/data_exp_58324-v9_task-fbmh.csv",9,"Windows 10","Chrome 92.0.4515.131","Version8",27,6,"Male","English","Born and raised in the UK","","No",2,1,"Usually I can understand others without any issue but some have struggled to understand me while I've worn a mask",2,2,"Everything worked well","","","","","","",4,"210725_a156","72L",3472.39666867739,"a","aM","vM","L","0","aMvM",111,"4",27.5,"Male"
"2121","210725_a176",15219350,510.255548742606,143.715144702216,0,"brent?","104L","rent","aM","vNM","L","a","aMvNM",2.72609961065357,2.21584406191096,2.58238446595135,"104L_aM_vNM.mp4",7,"Version7","https://gorilla.sc/uploads/schedule/15219350?filename=104LaMvNMmp4-101-2.weba","Block1",88,"/Users/kechun/Documents/GitHub/PerMaSC/Maskanalysis/questionnaire/adult randomizer/data_exp_58324-v9_task-tmfe.csv",9,"Windows 10","Chrome 92.0.4515.159","Version7",20,8,"Female","English","Born and raised in the UK","","No",2,1,"Hasn't been a huge issue. Sometimes hard to understand in loud spaces",1,1,"Everything worked well","","","","","","",3,"210725_a176","104L",143.715144702216,"a","aM","vNM","L","0","aMvNM",88,"3",20.6666666666667,"Female"
"2135","210725_a176",15219350,343.609622037035,188.183374265176,0,"slave","118L","sling","aM","vM","L","a","aMvM",2.67988018910484,2.3362705670678,2.49169681483966,"118L_aM_vM.mp4",7,"Version7","https://gorilla.sc/uploads/schedule/15219350?filename=118LaMvMmp4-94-2.weba","Block1",81,"/Users/kechun/Documents/GitHub/PerMaSC/Maskanalysis/questionnaire/adult randomizer/data_exp_58324-v9_task-tmfe.csv",9,"Windows 10","Chrome 92.0.4515.159","Version7",20,8,"Female","English","Born and raised in the UK","","No",2,1,"Hasn't been a huge issue. Sometimes hard to understand in loud spaces",1,1,"Everything worked well","","","","","","",3,"210725_a176","118L",188.183374265176,"a","aM","vM","L","0","aMvM",81,"3",20.6666666666667,"Female"
"2186","210725_a176",15219350,609.357921677773,531.780750625103,0,"dawn? usually L in response is clear","42L","doll","aNM","vNM","L","a","aNMvNM",2.58017098089135,1.97081305921358,2.04839023026625,"42L_aNM_vNM.mp4",7,"Version7","https://gorilla.sc/uploads/schedule/15219350?filename=42LaNMvNMmp4-37-2.weba","Block1",28,"/Users/kechun/Documents/GitHub/PerMaSC/Maskanalysis/questionnaire/adult randomizer/data_exp_58324-v9_task-tmfe.csv",9,"Windows 10","Chrome 92.0.4515.159","Version7",20,8,"Female","English","Born and raised in the UK","","No",2,1,"Hasn't been a huge issue. Sometimes hard to understand in loud spaces",1,1,"Everything worked well","","","","","","",1,"210725_a176","42L",531.780750625103,"a","aNM","vNM","L","0","aNMvNM",28,"1",20.6666666666667,"Female"
"2225","210725_a176",15219350,835.663911083774,623.795979536113,0,"mock","87L","mop","aM","vM","L","a","aMvM",2.94595038544173,2.11028647435796,2.32215440590562,"87L_aM_vM.mp4",7,"Version7","https://gorilla.sc/uploads/schedule/15219350?filename=87LaMvMmp4-25-2.weba","Block1",16,"/Users/kechun/Documents/GitHub/PerMaSC/Maskanalysis/questionnaire/adult randomizer/data_exp_58324-v9_task-tmfe.csv",9,"Windows 10","Chrome 92.0.4515.159","Version7",20,8,"Female","English","Born and raised in the UK","","No",2,1,"Hasn't been a huge issue. Sometimes hard to understand in loud spaces",1,1,"Everything worked well","","","","","","",1,"210725_a176","87L",623.795979536113,"a","aM","vM","L","0","aMvM",16,"1",20.6666666666667,"Female"
"2377","210725_a185",15129350,644.46639870317,247.62612092542,0,"punch","120L","sponge","aM","vNM","L","a","aMvNM",2.58288102256148,1.93841462385831,2.33525490163606,"120L_aM_vNM.mp4",7,"Version3","https://gorilla.sc/uploads/schedule/15129350?filename=120LaMvNMmp4-78-2.weba","Block1",65,"/Users/kechun/Documents/GitHub/PerMaSC/Maskanalysis/questionnaire/adult randomizer/data_exp_58324-v9_task-75wy.csv",9,"Mac OS 10.15.6","Chrome 91.0.4472.106","Version3",26,7,"Female","English and another language (bilingual)","Born and raised in the UK","","Yes sometimes",3,1,"Difficulty understanding others who wear face masks depends on the environment (noisy/quiet) as well as the pitch of the person speaking.",2,2,"Everything worked well","","","","","","",3,"210725_a185","120L",247.62612092542,"a","aM","vNM","L","0","aMvNM",65,"3",26.5833333333333,"Female"
"2411","210725_a185",15129350,2091.83792724389,1748.4966574026,0,"pots","28L","cops","aM","vM","L","a","aMvM",4.47416530046513,2.38232737322124,2.72566864306253,"28L_aM_vM.mp4",7,"Version3","https://gorilla.sc/uploads/schedule/15129350?filename=28LaMvMmp4-16-2.weba","Block1",7,"/Users/kechun/Documents/GitHub/PerMaSC/Maskanalysis/questionnaire/adult randomizer/data_exp_58324-v9_task-75wy.csv",9,"Mac OS 10.15.6","Chrome 91.0.4472.106","Version3",26,7,"Female","English and another language (bilingual)","Born and raised in the UK","","Yes sometimes",3,1,"Difficulty understanding others who wear face masks depends on the environment (noisy/quiet) as well as the pitch of the person speaking.",2,2,"Everything worked well","","","","","","",1,"210725_a185","28L",1748.4966574026,"a","aM","vM","L","0","aMvM",7,"1",26.5833333333333,"Female"
"2514","210725_a83",14570364,2330.32279568321,2154.73173233481,0,"t is made a affricative like ts","139L","tub","aM","vNM","L","a","aMvNM",4.71130777941225,2.38098498372904,2.55657604707744,"139L_aM_vNM.mp4",7,"Version7","https://gorilla.sc/uploads/schedule/14570364?filename=139LaMvNMmp4-31-2.weba","Block1",22,"/Users/kechun/Documents/GitHub/PerMaSC/Maskanalysis/questionnaire/adult randomizer/data_exp_58324-v8_task-tmfe.csv",8,"Windows 10","Chrome 91.0.4472.164","Version7",23,7,"Female","English and another language (bilingual)","Raised in the UK from this age (please specify):","5","Yes sometimes",2,3,"",2,3,"","",NA,"There were issues with the voice recordings",NA,"I think sometimes the video was slow but the audio was working normally so there was a mismatch between lips and sound but this didn't affect me per say.","",1,"210725_a83","139L",2154.73173233481,"a","aM","vNM","L","0","aMvNM",22,"1",23.5833333333333,"Female"
"2657","210725_a90",14625776,576.30860921978,443.190962160941,0,"'turb'","35L","curb","aM","vNM","L","a","aMvNM",2.80376885856387,2.22746024934409,2.36057789640293,"35L_aM_vNM.mp4",7,"Version3","https://gorilla.sc/uploads/schedule/14625776?filename=35LaMvNMmp4-125-2.weba","Block1",110,"/Users/kechun/Documents/GitHub/PerMaSC/Maskanalysis/questionnaire/adult randomizer/data_exp_58324-v9_task-75wy.csv",9,"Mac OS 10.15.7","Chrome 91.0.4472.114","Version3",36,0,"Male","English","Born and raised in the UK","","Yes sometimes",4,4,"Thinking back on incidents where I have struggled to understand people, there might have been other factors involved such as perspex screens and a large distant between us that compounded the problem.",1,1,"Everything worked well","","","","","","That was fun. Really intrigued to see the results if they are ever made public.",4,"210725_a90","35L",443.190962160941,"a","aM","vNM","L","0","aMvNM",110,"4",36,"Male"
"2678","210725_a90",14625776,1977.61079615156,1853.64899059601,0,"nonword","60H","grin","aM","vNM","H","a","aMvNM",4.32989738517301,2.35228658902145,2.476248394577,"60H_aM_vNM.mp4",7,"Version3","https://gorilla.sc/uploads/schedule/14625776?filename=60HaMvNMmp4-11-2.weba","Block1",2,"/Users/kechun/Documents/GitHub/PerMaSC/Maskanalysis/questionnaire/adult randomizer/data_exp_58324-v9_task-75wy.csv",9,"Mac OS 10.15.7","Chrome 91.0.4472.114","Version3",36,0,"Male","English","Born and raised in the UK","","Yes sometimes",4,4,"Thinking back on incidents where I have struggled to understand people, there might have been other factors involved such as perspex screens and a large distant between us that compounded the problem.",1,1,"Everything worked well","","","","","","That was fun. Really intrigued to see the results if they are ever made public.",1,"210725_a90","60H",1853.64899059601,"a","aM","vNM","H","0","aMvNM",2,"1",36,"Male"
"2679","210725_a90",14625776,1254.57375395638,1146.49411542359,0,"a growl","61L","growl","aM","vM","L","a","aMvM",3.14927282096943,1.89469906701305,2.00277870554584,"61L_aM_vM.mp4",7,"Version3","https://gorilla.sc/uploads/schedule/14625776?filename=61LaMvMmp4-94-2.weba","Block1",81,"/Users/kechun/Documents/GitHub/PerMaSC/Maskanalysis/questionnaire/adult randomizer/data_exp_58324-v9_task-75wy.csv",9,"Mac OS 10.15.7","Chrome 91.0.4472.114","Version3",36,0,"Male","English","Born and raised in the UK","","Yes sometimes",4,4,"Thinking back on incidents where I have struggled to understand people, there might have been other factors involved such as perspex screens and a large distant between us that compounded the problem.",1,1,"Everything worked well","","","","","","That was fun. Really intrigued to see the results if they are ever made public.",3,"210725_a90","61L",1146.49411542359,"a","aM","vM","L","0","aMvM",81,"3",36,"Male"
"2719","210725_a96",14750145,327.53287603296,-7.83290916545054,0,"braft","103L","raft","aM","vNM","L","a","aMvNM",2.55803481332307,2.23050193729011,2.56586772248852,"103L_aM_vNM.mp4",7,"Version8","https://gorilla.sc/uploads/schedule/14750145?filename=audioFile-51-2.weba","Block1",40,"/Users/kechun/Documents/GitHub/PerMaSC/Maskanalysis/questionnaire/adult randomizer/data_exp_58324-v9_task-fbmh.csv",9,"Mac OS 10.15.7","Chrome 92.0.4515.107","Version8",24,7,"Male","English","Born and raised in the UK","","Yes sometimes",3,2,"Generally fine when just face masks are involved, but more difficulty when trying to communicate though glass/plastic screens",2,3,"","","","There were issues with the voice recordings","","one interference of unexpected phone noises","",2,"210725_a96","103L",-7.83290916545054,"a","aM","vNM","L","0","aMvNM",40,"2",24.5833333333333,"Male"
"2722","210725_a96",14750145,616.712592593766,385.783570227296,0,"a rope","107H","rope","aNM","vNM","H","a","aNMvNM",2.63384563019632,2.01713303760255,2.24806205996902,"107H_aNM_vNM.mp4",7,"Version8","https://gorilla.sc/uploads/schedule/14750145?filename=audioFile-110-2.weba","Block1",95,"/Users/kechun/Documents/GitHub/PerMaSC/Maskanalysis/questionnaire/adult randomizer/data_exp_58324-v9_task-fbmh.csv",9,"Mac OS 10.15.7","Chrome 92.0.4515.107","Version8",24,7,"Male","English","Born and raised in the UK","","Yes sometimes",3,2,"Generally fine when just face masks are involved, but more difficulty when trying to communicate though glass/plastic screens",2,3,"","","","There were issues with the voice recordings","","one interference of unexpected phone noises","",4,"210725_a96","107H",385.783570227296,"a","aNM","vNM","H","0","aNMvNM",95,"4",24.5833333333333,"Male"
"2727","210725_a96",14750145,81.3411712376295,-185.113525732111,0,"self-correction","111H","seeds","aNM","vNM","H","a","aNMvNM",2.02360807613826,1.94226690490063,2.20872160187037,"111H_aNM_vNM.mp4",7,"Version8","https://gorilla.sc/uploads/schedule/14750145?filename=audioFile-59-2.weba","Block1",48,"/Users/kechun/Documents/GitHub/PerMaSC/Maskanalysis/questionnaire/adult randomizer/data_exp_58324-v9_task-fbmh.csv",9,"Mac OS 10.15.7","Chrome 92.0.4515.107","Version8",24,7,"Male","English","Born and raised in the UK","","Yes sometimes",3,2,"Generally fine when just face masks are involved, but more difficulty when trying to communicate though glass/plastic screens",2,3,"","","","There were issues with the voice recordings","","one interference of unexpected phone noises","",2,"210725_a96","111H",-185.113525732111,"a","aNM","vNM","H","0","aNMvNM",48,"2",24.5833333333333,"Male"
"2750","210725_a96",14750145,1361.73933032426,1228.62729752494,0,"don't know","134L","tin","aM","vM","L","a","aMvM",3.14183717113149,1.78009784080723,1.91320987360655,"134L_aM_vM.mp4",7,"Version8","https://gorilla.sc/uploads/schedule/14750145?filename=audioFile-67-2.weba","Block1",56,"/Users/kechun/Documents/GitHub/PerMaSC/Maskanalysis/questionnaire/adult randomizer/data_exp_58324-v9_task-fbmh.csv",9,"Mac OS 10.15.7","Chrome 92.0.4515.107","Version8",24,7,"Male","English","Born and raised in the UK","","Yes sometimes",3,2,"Generally fine when just face masks are involved, but more difficulty when trying to communicate though glass/plastic screens",2,3,"","","","There were issues with the voice recordings","","one interference of unexpected phone noises","",2,"210725_a96","134L",1228.62729752494,"a","aM","vM","L","0","aMvM",56,"2",24.5833333333333,"Male"
"2765","210725_a96",14750145,968.65387606248,732.326991141849,0,"plop?","23L","clock","aM","vM","L","a","aMvM",3.27504044394631,2.30638656788383,2.54271345280446,"23L_aM_vM.mp4",7,"Version8","https://gorilla.sc/uploads/schedule/14750145?filename=audioFile-53-2.weba","Block1",42,"/Users/kechun/Documents/GitHub/PerMaSC/Maskanalysis/questionnaire/adult randomizer/data_exp_58324-v9_task-fbmh.csv",9,"Mac OS 10.15.7","Chrome 92.0.4515.107","Version8",24,7,"Male","English","Born and raised in the UK","","Yes sometimes",3,2,"Generally fine when just face masks are involved, but more difficulty when trying to communicate though glass/plastic screens",2,3,"","","","There were issues with the voice recordings","","one interference of unexpected phone noises","",2,"210725_a96","23L",732.326991141849,"a","aM","vM","L","0","aMvM",42,"2",24.5833333333333,"Male"
"2799","210725_a96",14750145,434.967017529857,317.093783066637,0,"grown","61L","growl","aNM","vM","L","a","aNMvM",2.36857933377826,1.9336123162484,2.05148555071162,"61L_aNM_vM.mp4",7,"Version8","https://gorilla.sc/uploads/schedule/14750145?filename=audioFile-47-2.weba","Block1",36,"/Users/kechun/Documents/GitHub/PerMaSC/Maskanalysis/questionnaire/adult randomizer/data_exp_58324-v9_task-fbmh.csv",9,"Mac OS 10.15.7","Chrome 92.0.4515.107","Version8",24,7,"Male","English","Born and raised in the UK","","Yes sometimes",3,2,"Generally fine when just face masks are involved, but more difficulty when trying to communicate though glass/plastic screens",2,3,"","","","There were issues with the voice recordings","","one interference of unexpected phone noises","",2,"210725_a96","61L",317.093783066637,"a","aNM","vM","L","0","aNMvM",36,"2",24.5833333333333,"Male"
"2816","210725_a96",14750145,161.77666122064,18.1206677887604,0,"glid","79H","lid","aM","vNM","H","a","aMvNM",2.18767909039974,2.0259024291791,2.16955842261098,"79H_aM_vNM.mp4",7,"Version8","https://gorilla.sc/uploads/schedule/14750145?filename=audioFile-78-2.weba","Block1",65,"/Users/kechun/Documents/GitHub/PerMaSC/Maskanalysis/questionnaire/adult randomizer/data_exp_58324-v9_task-fbmh.csv",9,"Mac OS 10.15.7","Chrome 92.0.4515.107","Version8",24,7,"Male","English","Born and raised in the UK","","Yes sometimes",3,2,"Generally fine when just face masks are involved, but more difficulty when trying to communicate though glass/plastic screens",2,3,"","","","There were issues with the voice recordings","","one interference of unexpected phone noises","",3,"210725_a96","79H",18.1206677887604,"a","aM","vNM","H","0","aMvNM",65,"3",24.5833333333333,"Male"
"2820","210725_a96",14750145,445.338959228199,96.4461351540491,0,"voiced 'g'","82L","lungs","aNM","vNM","L","a","aNMvNM",3.14915066396219,2.70381170473399,3.05270452880814,"82L_aNM_vNM.mp4",7,"Version8","https://gorilla.sc/uploads/schedule/14750145?filename=audioFile-83-2.weba","Block1",70,"/Users/kechun/Documents/GitHub/PerMaSC/Maskanalysis/questionnaire/adult randomizer/data_exp_58324-v9_task-fbmh.csv",9,"Mac OS 10.15.7","Chrome 92.0.4515.107","Version8",24,7,"Male","English","Born and raised in the UK","","Yes sometimes",3,2,"Generally fine when just face masks are involved, but more difficulty when trying to communicate though glass/plastic screens",2,3,"","","","There were issues with the voice recordings","","one interference of unexpected phone noises","",3,"210725_a96","82L",96.4461351540491,"a","aNM","vNM","L","0","aNMvNM",70,"3",24.5833333333333,"Male"
"2857","210725_c122",15102120,1927.89621567944,1706.07332835552,0,"school","121L","spool","aNM","vNM","L","c","aNMvNM",4.02101046886209,2.09311425318265,2.31493714050657,"121L_aNM_vNM.mp4",7,"Version4","https://gorilla.sc/uploads/schedule/15102120?filename=121LaNMvNMmp4-89-2.weba","Block1",76,"/Users/kechun/Documents/GitHub/PerMaSC/Maskanalysis/questionnaire/child randomizer/data_exp_58325-v9_task-gv44.csv",9,"Windows 10","Chrome 92.0.4515.131","Version4",11,0,"Female","English","Born and raised in the UK","","Yes sometimes",2,2,"",3,2,"Everything worked well","","","","","","It was quite long",3,"210725_c122","121L",1706.07332835552,"c","aNM","vNM","L","0","aNMvNM",76,"3",11,"Female"
"2863","210725_c122",15102120,1116.5375017272,957.199217898751,0,"one","128L","swan","aM","vNM","L","c","aMvNM",2.98426864064563,1.86773113891843,2.02706942274688,"128L_aM_vNM.mp4",7,"Version4","https://gorilla.sc/uploads/schedule/15102120?filename=128LaMvNMmp4-32-2.weba","Block1",23,"/Users/kechun/Documents/GitHub/PerMaSC/Maskanalysis/questionnaire/child randomizer/data_exp_58325-v9_task-gv44.csv",9,"Windows 10","Chrome 92.0.4515.131","Version4",11,0,"Female","English","Born and raised in the UK","","Yes sometimes",2,2,"",3,2,"Everything worked well","","","","","","It was quite long",1,"210725_c122","128L",957.199217898751,"c","aM","vNM","L","0","aMvNM",23,"1",11,"Female"
"2891","210725_c122",15102120,1315.97779210025,1037.86089677501,0,"discard_craft","29L","crash","aM","vM","L","c","aMvM",3.64103805798879,2.32506026588854,2.60317716121378,"29L_aM_vM.mp4",7,"Version4","https://gorilla.sc/uploads/schedule/15102120?filename=29LaMvMmp4-43-2.weba","Block1",32,"/Users/kechun/Documents/GitHub/PerMaSC/Maskanalysis/questionnaire/child randomizer/data_exp_58325-v9_task-gv44.csv",9,"Windows 10","Chrome 92.0.4515.131","Version4",11,0,"Female","English","Born and raised in the UK","","Yes sometimes",2,2,"",3,2,"Everything worked well","","","","","","It was quite long",2,"210725_c122","29L",1037.86089677501,"c","aM","vM","L","0","aMvM",32,"2",11,"Female"
"2901","210725_c122",15102120,865.522680669155,556.882750113575,0,"discard_doubt","39L","dent","aNM","vM","L","c","aNMvM",2.77665533463446,1.9111326539653,2.21977258452088,"39L_aNM_vM.mp4",7,"Version4","https://gorilla.sc/uploads/schedule/15102120?filename=39LaNMvMmp4-66-2.weba","Block1",55,"/Users/kechun/Documents/GitHub/PerMaSC/Maskanalysis/questionnaire/child randomizer/data_exp_58325-v9_task-gv44.csv",9,"Windows 10","Chrome 92.0.4515.131","Version4",11,0,"Female","English","Born and raised in the UK","","Yes sometimes",2,2,"",3,2,"Everything worked well","","","","","","It was quite long",2,"210725_c122","39L",556.882750113575,"c","aNM","vM","L","0","aNMvM",55,"2",11,"Female"
"2905","210725_c122",15102120,1035.43355353377,897.674327343284,0,"discard_dog","42L","doll","aM","vNM","L","c","aMvNM",2.95818755600538,1.92275400247161,2.0605132286621,"42L_aM_vNM.mp4",7,"Version4","https://gorilla.sc/uploads/schedule/15102120?filename=42LaMvNMmp4-119-2.weba","Block1",104,"/Users/kechun/Documents/GitHub/PerMaSC/Maskanalysis/questionnaire/child randomizer/data_exp_58325-v9_task-gv44.csv",9,"Windows 10","Chrome 92.0.4515.131","Version4",11,0,"Female","English","Born and raised in the UK","","Yes sometimes",2,2,"",3,2,"Everything worked well","","","","","","It was quite long",4,"210725_c122","42L",897.674327343284,"c","aM","vNM","L","0","aMvNM",104,"4",11,"Female"
"2945","210725_c122",15102120,1521.50705136355,1289.2013750351,0,"discard_mout","88L","mouse","aM","vNM","L","c","aMvNM",3.90775663468926,2.38624958332571,2.61855525965416,"88L_aM_vNM.mp4",7,"Version4","https://gorilla.sc/uploads/schedule/15102120?filename=88LaMvNMmp4-47-2.weba","Block1",36,"/Users/kechun/Documents/GitHub/PerMaSC/Maskanalysis/questionnaire/child randomizer/data_exp_58325-v9_task-gv44.csv",9,"Windows 10","Chrome 92.0.4515.131","Version4",11,0,"Female","English","Born and raised in the UK","","Yes sometimes",2,2,"",3,2,"Everything worked well","","","","","","It was quite long",2,"210725_c122","88L",1289.2013750351,"c","aM","vNM","L","0","aMvNM",36,"2",11,"Female"
"2949","210725_c122",15102120,1195.53154402218,870.899252355575,0,"discard_not","91H","notch","aM","vM","H","c","aMvM",2.91355106799404,1.71801952397186,2.04265181563846,"91H_aM_vM.mp4",7,"Version4","https://gorilla.sc/uploads/schedule/15102120?filename=91HaMvMmp4-62-2.weba","Block1",51,"/Users/kechun/Documents/GitHub/PerMaSC/Maskanalysis/questionnaire/child randomizer/data_exp_58325-v9_task-gv44.csv",9,"Windows 10","Chrome 92.0.4515.131","Version4",11,0,"Female","English","Born and raised in the UK","","Yes sometimes",2,2,"",3,2,"Everything worked well","","","","","","It was quite long",2,"210725_c122","91H",870.899252355575,"c","aM","vM","H","0","aMvM",51,"2",11,"Female"
"2959","210725_c130",15367679,822.355810895735,492.688218303114,0,"unsure_braft","103H","raft","aM","vNM","H","c","aMvNM",3.73291970618585,2.91056389529012,3.24023148788274,"103H_aM_vNM.mp4",7,"Version4","https://gorilla.sc/uploads/schedule/15367679?filename=103HaMvNMmp4-23-2.weba","Block1",14,"/Users/kechun/Documents/GitHub/PerMaSC/Maskanalysis/questionnaire/child randomizer/data_exp_58325-v9_task-gv44.csv",9,"Windows 10","Chrome 92.0.4515.131","Version4",11,3,"Male","English","Born and raised in the UK","","No",1,1,"",2,1,"Everything worked well","","","","","none","no",1,"210725_c130","103H",492.688218303114,"c","aM","vNM","H","0","aMvNM",14,"1",11.25,"Male"
"2961","210725_c130",15367679,605.78699579633,446.98055640248,0,"grim","105H","rim","aNM","vNM","H","c","aNMvNM",2.88763279484675,2.28184579905042,2.44065223844427,"105H_aNM_vNM.mp4",7,"Version4","https://gorilla.sc/uploads/schedule/15367679?filename=105HaNMvNMmp4-58-2.weba","Block1",47,"/Users/kechun/Documents/GitHub/PerMaSC/Maskanalysis/questionnaire/child randomizer/data_exp_58325-v9_task-gv44.csv",9,"Windows 10","Chrome 92.0.4515.131","Version4",11,3,"Male","English","Born and raised in the UK","","No",1,1,"",2,1,"Everything worked well","","","","","none","no",2,"210725_c130","105H",446.98055640248,"c","aNM","vNM","H","0","aNMvNM",47,"2",11.25,"Male"
"3003","210725_c130",15367679,2141.32196230459,1958.47402985509,0,"unsure_clock","21L","clerk","aM","vM","L","c","aMvM",4.30017478068392,2.15885281837933,2.34170075082883,"21L_aM_vM.mp4",7,"Version4","https://gorilla.sc/uploads/schedule/15367679?filename=21LaMvMmp4-117-2.weba","Block1",102,"/Users/kechun/Documents/GitHub/PerMaSC/Maskanalysis/questionnaire/child randomizer/data_exp_58325-v9_task-gv44.csv",9,"Windows 10","Chrome 92.0.4515.131","Version4",11,3,"Male","English","Born and raised in the UK","","No",1,1,"",2,1,"Everything worked well","","","","","none","no",4,"210725_c130","21L",1958.47402985509,"c","aM","vM","L","0","aMvM",102,"4",11.25,"Male"
"3017","210725_c130",15367679,2811.71905464473,2583.16141575585,0,"unsure_cab?","35L","curb","aNM","vM","L","c","aNMvM",4.94790061445599,2.13618155981126,2.36473919870014,"35L_aNM_vM.mp4",7,"Version4","https://gorilla.sc/uploads/schedule/15367679?filename=35LaNMvMmp4-49-2.weba","Block1",38,"/Users/kechun/Documents/GitHub/PerMaSC/Maskanalysis/questionnaire/child randomizer/data_exp_58325-v9_task-gv44.csv",9,"Windows 10","Chrome 92.0.4515.131","Version4",11,3,"Male","English","Born and raised in the UK","","No",1,1,"",2,1,"Everything worked well","","","","","none","no",2,"210725_c130","35L",2583.16141575585,"c","aNM","vM","L","0","aNMvM",38,"2",11.25,"Male"
"3020","210725_c130",15367679,3672.83223641476,3580.5283944234,0,"donnot know","38L","den","aM","vNM","L","c","aMvNM",5.74214819782742,2.06931596141266,2.16161980340402,"38L_aM_vNM.mp4",7,"Version4","https://gorilla.sc/uploads/schedule/15367679?filename=38LaMvNMmp4-108-2.weba","Block1",93,"/Users/kechun/Documents/GitHub/PerMaSC/Maskanalysis/questionnaire/child randomizer/data_exp_58325-v9_task-gv44.csv",9,"Windows 10","Chrome 92.0.4515.131","Version4",11,3,"Male","English","Born and raised in the UK","","No",1,1,"",2,1,"Everything worked well","","","","","none","no",4,"210725_c130","38L",3580.5283944234,"c","aM","vNM","L","0","aMvNM",93,"4",11.25,"Male"
"3032","210725_c130",15367679,698.364699865552,436.691584786192,0,"frot?","53L","frogs","aNM","vNM","L","c","aNMvNM",3.00555796879601,2.30719326893046,2.56886638400982,"53L_aNM_vNM.mp4",7,"Version4","https://gorilla.sc/uploads/schedule/15367679?filename=53LaNMvNMmp4-44-2.weba","Block1",33,"/Users/kechun/Documents/GitHub/PerMaSC/Maskanalysis/questionnaire/child randomizer/data_exp_58325-v9_task-gv44.csv",9,"Windows 10","Chrome 92.0.4515.131","Version4",11,3,"Male","English","Born and raised in the UK","","No",1,1,"",2,1,"Everything worked well","","","","","none","no",2,"210725_c130","53L",436.691584786192,"c","aNM","vNM","L","0","aNMvNM",33,"2",11.25,"Male"
"3039","210725_c130",15367679,430.592229813844,341.928917120354,0,"unsure_grown?","61H","growl","aNM","vNM","H","c","aNMvNM",2.57197734006581,2.14138511025197,2.23004842294546,"61H_aNM_vNM.mp4",7,"Version4","https://gorilla.sc/uploads/schedule/15367679?filename=61HaNMvNMmp4-27-2.weba","Block1",18,"/Users/kechun/Documents/GitHub/PerMaSC/Maskanalysis/questionnaire/child randomizer/data_exp_58325-v9_task-gv44.csv",9,"Windows 10","Chrome 92.0.4515.131","Version4",11,3,"Male","English","Born and raised in the UK","","No",1,1,"",2,1,"Everything worked well","","","","","none","no",1,"210725_c130","61H",341.928917120354,"c","aNM","vNM","H","0","aNMvNM",18,"1",11.25,"Male"
"3078","210725_c135",15571068,261.436997336423,100.089834980053,0,"unsure_toll","100L","pole","aNM","vNM","L","c","aNMvNM",1.84256288364883,1.58112588631241,1.74247304866878,"100L_aNM_vNM.mp4",7,"Version5","https://gorilla.sc/uploads/schedule/15571068?filename=100LaNMvNMmp4-63-2.weba","Block1",52,"/Users/kechun/Documents/GitHub/PerMaSC/Maskanalysis/questionnaire/child randomizer/data_exp_58325-v9_task-jhw4.csv",9,"Windows 10","Chrome 92.0.4515.159","Version5",10,0,"Male","English","Born and raised in the UK","","Yes sometimes",3,4,"",2,2,"Everything worked well","","","","","","",2,"210725_c135","100L",100.089834980053,"c","aNM","vNM","L","0","aNMvNM",52,"2",10,"Male"
"3080","210725_c135",15571068,303.225367793167,-24.9222866357335,0,"vanpt","104H","rent","aM","vM","H","c","aMvM",2.52157399152213,2.21834862372896,2.54649627815786,"104H_aM_vM.mp4",7,"Version5","https://gorilla.sc/uploads/schedule/15571068?filename=104HaMvMmp4-42-2.weba","Block1",31,"/Users/kechun/Documents/GitHub/PerMaSC/Maskanalysis/questionnaire/child randomizer/data_exp_58325-v9_task-jhw4.csv",9,"Windows 10","Chrome 92.0.4515.159","Version5",10,0,"Male","English","Born and raised in the UK","","Yes sometimes",3,4,"",2,2,"Everything worked well","","","","","","",2,"210725_c135","104H",-24.9222866357335,"c","aM","vM","H","0","aMvM",31,"2",10,"Male"
"3081","210725_c135",15571068,1124.99364969999,990.890953621642,0,"unsure_vim","105L","rim","aNM","vNM","L","c","aNMvNM",3.58362569131252,2.45863204161253,2.59273473769088,"105L_aNM_vNM.mp4",7,"Version5","https://gorilla.sc/uploads/schedule/15571068?filename=105LaNMvNMmp4-23-2.weba","Block1",14,"/Users/kechun/Documents/GitHub/PerMaSC/Maskanalysis/questionnaire/child randomizer/data_exp_58325-v9_task-jhw4.csv",9,"Windows 10","Chrome 92.0.4515.159","Version5",10,0,"Male","English","Born and raised in the UK","","Yes sometimes",3,4,"",2,2,"Everything worked well","","","","","","",1,"210725_c135","105L",990.890953621642,"c","aNM","vNM","L","0","aNMvNM",14,"1",10,"Male"
"3083","210725_c135",15571068,520.267791579905,473.899964531554,0,"vow","108H","row","aNM","vM","H","c","aNMvM",3.02083554151688,2.50056774993698,2.54693557698533,"108H_aNM_vM.mp4",7,"Version5","https://gorilla.sc/uploads/schedule/15571068?filename=108HaNMvMmp4-46-2.weba","Block1",35,"/Users/kechun/Documents/GitHub/PerMaSC/Maskanalysis/questionnaire/child randomizer/data_exp_58325-v9_task-jhw4.csv",9,"Windows 10","Chrome 92.0.4515.159","Version5",10,0,"Male","English","Born and raised in the UK","","Yes sometimes",3,4,"",2,2,"Everything worked well","","","","","","",2,"210725_c135","108H",473.899964531554,"c","aNM","vM","H","0","aNMvM",35,"2",10,"Male"
"3109","210725_c135",15571068,347.4930752874,143.02224195411,0,"unsure_thlout?","133H","throat","aNM","vM","H","c","aNMvM",2.4601766402251,2.1126835649377,2.31715439827099,"133H_aNM_vM.mp4",7,"Version5","https://gorilla.sc/uploads/schedule/15571068?filename=133HaNMvMmp4-114-2.weba","Block1",99,"/Users/kechun/Documents/GitHub/PerMaSC/Maskanalysis/questionnaire/child randomizer/data_exp_58325-v9_task-jhw4.csv",9,"Windows 10","Chrome 92.0.4515.159","Version5",10,0,"Male","English","Born and raised in the UK","","Yes sometimes",3,4,"",2,2,"Everything worked well","","","","","","",4,"210725_c135","133H",143.02224195411,"c","aNM","vM","H","0","aNMvM",99,"4",10,"Male"
"3111","210725_c135",15571068,18.6758943882643,-106.156751530976,0,"unsure_overlap in the onset","136L","trail","aNM","vNM","L","c","aNMvNM",1.88057174361371,1.86189584922545,1.98672849514469,"136L_aNM_vNM.mp4",7,"Version5","https://gorilla.sc/uploads/schedule/15571068?filename=136LaNMvNMmp4-62-2.weba","Block1",51,"/Users/kechun/Documents/GitHub/PerMaSC/Maskanalysis/questionnaire/child randomizer/data_exp_58325-v9_task-jhw4.csv",9,"Windows 10","Chrome 92.0.4515.159","Version5",10,0,"Male","English","Born and raised in the UK","","Yes sometimes",3,4,"",2,2,"Everything worked well","","","","","","",2,"210725_c135","136L",-106.156751530976,"c","aNM","vNM","L","0","aNMvNM",51,"2",10,"Male"
"3117","210725_c135",15571068,1787.01358715385,1706.76854747131,0,"unsure_boom?","14L","broom","aM","vNM","L","c","aMvNM",4.33368725244131,2.54667366528746,2.62691870497,"14L_aM_vNM.mp4",7,"Version5","https://gorilla.sc/uploads/schedule/15571068?filename=14LaMvNMmp4-26-2.weba","Block1",17,"/Users/kechun/Documents/GitHub/PerMaSC/Maskanalysis/questionnaire/child randomizer/data_exp_58325-v9_task-jhw4.csv",9,"Windows 10","Chrome 92.0.4515.159","Version5",10,0,"Male","English","Born and raised in the UK","","Yes sometimes",3,4,"",2,2,"Everything worked well","","","","","","",1,"210725_c135","14L",1706.76854747131,"c","aM","vNM","L","0","aMvNM",17,"1",10,"Male"
"3118","210725_c135",15571068,392.479647528047,184.564572296567,0,"unsure_buise","15H","bruise","aNM","vNM","H","c","aNMvNM",2.62536890992759,2.23288926239954,2.44080433763102,"15H_aNM_vNM.mp4",7,"Version5","https://gorilla.sc/uploads/schedule/15571068?filename=15HaNMvNMmp4-121-2.weba","Block1",106,"/Users/kechun/Documents/GitHub/PerMaSC/Maskanalysis/questionnaire/child randomizer/data_exp_58325-v9_task-jhw4.csv",9,"Windows 10","Chrome 92.0.4515.159","Version5",10,0,"Male","English","Born and raised in the UK","","Yes sometimes",3,4,"",2,2,"Everything worked well","","","","","","",4,"210725_c135","15H",184.564572296567,"c","aNM","vNM","H","0","aNMvNM",106,"4",10,"Male"
"3135","210725_c135",15571068,258.456688190112,59.7282728895721,0,"unsure_cop?","32L","crop","aNM","vNM","L","c","aNMvNM",2.60299060856755,2.34453392037744,2.54326233567798,"32L_aNM_vNM.mp4",7,"Version5","https://gorilla.sc/uploads/schedule/15571068?filename=32LaNMvNMmp4-125-2.weba","Block1",110,"/Users/kechun/Documents/GitHub/PerMaSC/Maskanalysis/questionnaire/child randomizer/data_exp_58325-v9_task-jhw4.csv",9,"Windows 10","Chrome 92.0.4515.159","Version5",10,0,"Male","English","Born and raised in the UK","","Yes sometimes",3,4,"",2,2,"Everything worked well","","","","","","",4,"210725_c135","32L",59.7282728895721,"c","aNM","vNM","L","0","aNMvNM",110,"4",10,"Male"
"3138","210725_c135",15571068,357.835455289602,165.090763783152,0,"dark","36L","dart","aM","vNM","L","c","aMvNM",2.34231045219593,1.98447499690633,2.17721968841278,"36L_aM_vNM.mp4",7,"Version5","https://gorilla.sc/uploads/schedule/15571068?filename=36LaMvNMmp4-133-2.weba","Block1",118,"/Users/kechun/Documents/GitHub/PerMaSC/Maskanalysis/questionnaire/child randomizer/data_exp_58325-v9_task-jhw4.csv",9,"Windows 10","Chrome 92.0.4515.159","Version5",10,0,"Male","English","Born and raised in the UK","","Yes sometimes",3,4,"",2,2,"Everything worked well","","","","","","",4,"210725_c135","36L",165.090763783152,"c","aM","vNM","L","0","aMvNM",118,"4",10,"Male"
"3152","210725_c135",15571068,2022.75711254765,1683.65520832441,0,"unsure_fogs","53L","frogs","aM","vNM","L","c","aMvNM",3.85557498926545,1.8328178767178,2.17191978094104,"53L_aM_vNM.mp4",7,"Version5","https://gorilla.sc/uploads/schedule/15571068?filename=53LaMvNMmp4-16-2.weba","Block1",7,"/Users/kechun/Documents/GitHub/PerMaSC/Maskanalysis/questionnaire/child randomizer/data_exp_58325-v9_task-jhw4.csv",9,"Windows 10","Chrome 92.0.4515.159","Version5",10,0,"Male","English","Born and raised in the UK","","Yes sometimes",3,4,"",2,2,"Everything worked well","","","","","","",1,"210725_c135","53L",1683.65520832441,"c","aM","vNM","L","0","aMvNM",7,"1",10,"Male"
"3158","210725_c135",15571068,523.32996520391,399.36815964836,0,"unsure_guam?","60H","grin","aM","vM","H","c","aMvM",2.87561655422536,2.35228658902145,2.476248394577,"60H_aM_vM.mp4",7,"Version5","https://gorilla.sc/uploads/schedule/15571068?filename=60HaMvMmp4-127-2.weba","Block1",112,"/Users/kechun/Documents/GitHub/PerMaSC/Maskanalysis/questionnaire/child randomizer/data_exp_58325-v9_task-jhw4.csv",9,"Windows 10","Chrome 92.0.4515.159","Version5",10,0,"Male","English","Born and raised in the UK","","Yes sometimes",3,4,"",2,2,"Everything worked well","","","","","","",4,"210725_c135","60H",399.36815964836,"c","aM","vM","H","0","aMvM",112,"4",10,"Male"
"3186","210725_c135",15571068,1080.89456600373,956.267482670396,0,"unsure_lame - there seems to be a burst, but I cannot hear it","8L","blame","aM","vNM","L","c","aMvNM",2.85018510370367,1.76929053769994,1.89391762103327,"8L_aM_vNM.mp4",7,"Version5","https://gorilla.sc/uploads/schedule/15571068?filename=8LaMvNMmp4-55-2.weba","Block1",44,"/Users/kechun/Documents/GitHub/PerMaSC/Maskanalysis/questionnaire/child randomizer/data_exp_58325-v9_task-jhw4.csv",9,"Windows 10","Chrome 92.0.4515.159","Version5",10,0,"Male","English","Born and raised in the UK","","Yes sometimes",3,4,"",2,2,"Everything worked well","","","","","","",2,"210725_c135","8L",956.267482670396,"c","aM","vNM","L","0","aMvNM",44,"2",10,"Male"
"3189","210725_c135",15571068,2795.35645246926,2612.54866172396,0,"discard_I donot know","93L","pad","aNM","vM","L","c","aNMvM",5.16910397499771,2.37374752252845,2.55655531327375,"93L_aNM_vM.mp4",7,"Version5","https://gorilla.sc/uploads/schedule/15571068?filename=93LaNMvMmp4-102-2.weba","Block1",89,"/Users/kechun/Documents/GitHub/PerMaSC/Maskanalysis/questionnaire/child randomizer/data_exp_58325-v9_task-jhw4.csv",9,"Windows 10","Chrome 92.0.4515.159","Version5",10,0,"Male","English","Born and raised in the UK","","Yes sometimes",3,4,"",2,2,"Everything worked well","","","","","","",3,"210725_c135","93L",2612.54866172396,"c","aNM","vM","L","0","aNMvM",89,"3",10,"Male"
"3192","210725_c135",15571068,320.156978991466,192.905908028707,0,"preil","96L","pile","aNM","vNM","L","c","aNMvNM",2.2743628138569,1.95420583486543,2.08145690582819,"96L_aNM_vNM.mp4",7,"Version5","https://gorilla.sc/uploads/schedule/15571068?filename=96LaNMvNMmp4-83-2.weba","Block1",70,"/Users/kechun/Documents/GitHub/PerMaSC/Maskanalysis/questionnaire/child randomizer/data_exp_58325-v9_task-jhw4.csv",9,"Windows 10","Chrome 92.0.4515.159","Version5",10,0,"Male","English","Born and raised in the UK","","Yes sometimes",3,4,"",2,2,"Everything worked well","","","","","","",3,"210725_c135","96L",192.905908028707,"c","aNM","vNM","L","0","aNMvNM",70,"3",10,"Male"
"3202","210725_c76",14745223,1549.11326440402,1502.51193864643,0,"brow","108L","row","aNM","vM","L","c","aNMvM",3.95320184199819,2.40408857759417,2.45068990335176,"108L_aNM_vM.mp4",7,"Version2","https://gorilla.sc/uploads/schedule/14745223?filename=audioFile-120-2.weba","Block1",105,"/Users/kechun/Documents/GitHub/PerMaSC/Maskanalysis/questionnaire/child randomizer/data_exp_58325-v9_task-tucf.csv",9,"Mac OS 10.13.6","Chrome 91.0.4472.101","Version2",10,5,"Female","English","Born and raised in the UK","","No",2,2,"",2,2,"Everything worked well","","","","","","",4,"210725_c76","108L",1502.51193864643,"c","aNM","vM","L","0","aNMvM",105,"4",10.4166666666667,"Female"
"3218","210725_c76",14745223,641.089484951587,459.297343451177,0,"discard_self-correction","123H","sport","aNM","vM","H","c","aNMvM",2.98796246487036,2.34687297991877,2.52866512141918,"123H_aNM_vM.mp4",7,"Version2","https://gorilla.sc/uploads/schedule/14745223?filename=audioFile-22-2.weba","Block1",13,"/Users/kechun/Documents/GitHub/PerMaSC/Maskanalysis/questionnaire/child randomizer/data_exp_58325-v9_task-tucf.csv",9,"Mac OS 10.13.6","Chrome 91.0.4472.101","Version2",10,5,"Female","English","Born and raised in the UK","","No",2,2,"",2,2,"Everything worked well","","","","","","",1,"210725_c76","123H",459.297343451177,"c","aNM","vM","H","0","aNMvM",13,"1",10.4166666666667,"Female"
"3232","210725_c76",14745223,1000.64454728542,746.171998265907,0,"trup?","138L","truck","aNM","vM","L","c","aNMvM",2.96399374643315,1.96334919914773,2.21782174816724,"138L_aNM_vM.mp4",7,"Version2","https://gorilla.sc/uploads/schedule/14745223?filename=audioFile-47-2.weba","Block1",36,"/Users/kechun/Documents/GitHub/PerMaSC/Maskanalysis/questionnaire/child randomizer/data_exp_58325-v9_task-tucf.csv",9,"Mac OS 10.13.6","Chrome 91.0.4472.101","Version2",10,5,"Female","English","Born and raised in the UK","","No",2,2,"",2,2,"Everything worked well","","","","","","",2,"210725_c76","138L",746.171998265907,"c","aNM","vM","L","0","aNMvM",36,"2",10.4166666666667,"Female"
"3233","210725_c76",14745223,1079.74789447959,907.085647004986,0,"unsure_I think the onset is an afficative rather than a plosive","139L","tub","aNM","vNM","L","c","aNMvNM",3.44934045314945,2.36959255866986,2.54225480614446,"139L_aNM_vNM.mp4",7,"Version2","https://gorilla.sc/uploads/schedule/14745223?filename=audioFile-124-2.weba","Block1",109,"/Users/kechun/Documents/GitHub/PerMaSC/Maskanalysis/questionnaire/child randomizer/data_exp_58325-v9_task-tucf.csv",9,"Mac OS 10.13.6","Chrome 91.0.4472.101","Version2",10,5,"Female","English","Born and raised in the UK","","No",2,2,"",2,2,"Everything worked well","","","","","","",4,"210725_c76","139L",907.085647004986,"c","aNM","vNM","L","0","aNMvNM",109,"4",10.4166666666667,"Female"
"3234","210725_c76",14745223,649.205062313116,480.702658466896,0,"unsure_cannot figure out the onset - in fact, it sounds like dan rather than van to my ears","140H","van","aM","vM","H","c","aMvM",3.24493955890279,2.59573449658967,2.76423690043589,"140H_aM_vM.mp4",7,"Version2","https://gorilla.sc/uploads/schedule/14745223?filename=audioFile-88-2.weba","Block1",75,"/Users/kechun/Documents/GitHub/PerMaSC/Maskanalysis/questionnaire/child randomizer/data_exp_58325-v9_task-tucf.csv",9,"Mac OS 10.13.6","Chrome 91.0.4472.101","Version2",10,5,"Female","English","Born and raised in the UK","","No",2,2,"",2,2,"Everything worked well","","","","","","",3,"210725_c76","140H",480.702658466896,"c","aM","vM","H","0","aMvM",75,"3",10.4166666666667,"Female"
