"","parid","scheduleID","react1","react2","accuracy","note","number","correctans","audio","video","context","group","type","beep_response","length1","length2","batch","original_label","videoname","Task.Version","Spreadsheet","Response","display","randomise_blocks","row_number","filename","rowmean","block","Experiment.Version","Participant.OS","Participant.Browser","randomiser_t27m","date.of.birth_year","date.of.birth_month","sex","languages","response_6","response_6_text","mask.problems","Difficulty.x","Tiring","more.info.on.masks","Difficulty.y","Distraction","response_4_1","response_4_2","response_4_3","response_4_4","response_4_text","response_5","Comments","SUBJECT","ITEM","RT","GROUP","AUDIO","VIDEO","PREDICT","ACOUSTIC","VISUAL","PREDICTABILITY","ACC","CONDITION","TRIAL","BLOCK","AGE","SEX"
"21","210719_a25",14557507,343.858862462167,238.500961227577,0,"spin","122L","spoon","aNM","vNM","L","a","aNMvNM",2.55495273920108,2.21109387673891,2.3164517779735,1,"14557507_122LaNMvNM","122L_aNM_vNM.mp4",7,"Version8","https://gorilla.sc/uploads/schedule/14557507?filename=122LaNMvNMmp4-123-2.weba","Block1",4,108,"/Users/kechun/Documents/GitHub/PerMaSC/Maskanalysis/questionnaire/adult randomizer/data_exp_58324-v7_task-fbmh.csv",106,4,7,"Windows 10","Chrome 92.0.4515.107","Version8",26,3,"Female","English","Born and raised in the UK",NA,"Yes sometimes",3,2,"",1,2,"Everything worked well",NA,NA,NA,NA,NA,NA,"210719_a25","122L",238.500961227577,"Adults","aNM","vNM","L","No Acoustic Mask","No Visual Mask","Low Predictability","0","aNMvNM",108,4,26.25,"Female"
"33","210719_a25",14557507,487.866399451959,354.75436665264,0,"ten","134L","tin","aM","vM","L","a","aMvM",2.26796424025919,1.78009784080723,1.91320987360655,1,"14557507_134LaMvM","134L_aM_vM.mp4",7,"Version8","https://gorilla.sc/uploads/schedule/14557507?filename=134LaMvMmp4-86-2.weba","Block1",2,73,"/Users/kechun/Documents/GitHub/PerMaSC/Maskanalysis/questionnaire/adult randomizer/data_exp_58324-v7_task-fbmh.csv",76,3,7,"Windows 10","Chrome 92.0.4515.107","Version8",26,3,"Female","English","Born and raised in the UK",NA,"Yes sometimes",3,2,"",1,2,"Everything worked well",NA,NA,NA,NA,NA,NA,"210719_a25","134L",354.75436665264,"Adults","aM","vM","L","Acoustic Mask","Visual Mask","Low Predictability","0","aMvM",73,3,26.25,"Female"
"137","210719_a41",14610319,622.613071064866,467.186823293006,0,"snail","118L","sling","aM","vNM","L","a","aMvNM",2.95888363813267,2.3362705670678,2.49169681483966,1,"14610319_118LaMvNM","118L_aM_vNM.mp4",7,"Version1","https://gorilla.sc/uploads/schedule/14610319?filename=118LaMvNMmp4-130-2.weba","Block1",3,115,"/Users/kechun/Documents/GitHub/PerMaSC/Maskanalysis/questionnaire/adult randomizer/data_exp_58324-v8_task-b6hw.csv",106,4,8,"Windows 10","Chrome 92.0.4515.107","Version1",51,8,"Male","English","Born and raised in the UK",NA,"Yes sometimes",2,3,"low volume and pronunciation without being able to lip read",2,1,"Everything worked well","",NA,"",NA,"none","One of the questions in Level 2 text on screen should say 'kerb' not 'curb'!","210719_a41","118L",467.186823293006,"Adults","aM","vNM","L","Acoustic Mask","No Visual Mask","Low Predictability","0","aMvNM",115,4,51.6666666666667,"Male"
"163","210719_a41",14610319,704.232199472739,471.75224089575,0,"pulsed?","17L","calf","aM","vM","L","a","aMvM",3.42767699303266,2.72344479355992,2.95592475213691,1,"14610319_17LaMvM","17L_aM_vM.mp4",7,"Version1","https://gorilla.sc/uploads/schedule/14610319?filename=17LaMvMmp4-70-2.weba","Block1",4,59,"/Users/kechun/Documents/GitHub/PerMaSC/Maskanalysis/questionnaire/adult randomizer/data_exp_58324-v8_task-b6hw.csv",46,2,8,"Windows 10","Chrome 92.0.4515.107","Version1",51,8,"Male","English","Born and raised in the UK",NA,"Yes sometimes",2,3,"low volume and pronunciation without being able to lip read",2,1,"Everything worked well","",NA,"",NA,"none","One of the questions in Level 2 text on screen should say 'kerb' not 'curb'!","210719_a41","17L",471.75224089575,"Adults","aM","vM","L","Acoustic Mask","Visual Mask","Low Predictability","0","aMvM",59,2,51.6666666666667,"Male"
"233","210719_a41",14610319,552.021266574378,282.595531280138,0,"bet","94L","pet","aM","vM","L","a","aMvM",2.91004044612093,2.35801917954655,2.62744491484079,1,"14610319_94LaMvM","94L_aM_vM.mp4",7,"Version1","https://gorilla.sc/uploads/schedule/14610319?filename=94LaMvMmp4-49-2.weba","Block1",4,38,"/Users/kechun/Documents/GitHub/PerMaSC/Maskanalysis/questionnaire/adult randomizer/data_exp_58324-v8_task-b6hw.csv",46,2,8,"Windows 10","Chrome 92.0.4515.107","Version1",51,8,"Male","English","Born and raised in the UK",NA,"Yes sometimes",2,3,"low volume and pronunciation without being able to lip read",2,1,"Everything worked well","",NA,"",NA,"none","One of the questions in Level 2 text on screen should say 'kerb' not 'curb'!","210719_a41","94L",282.595531280138,"Adults","aM","vM","L","Acoustic Mask","Visual Mask","Low Predictability","0","aMvM",38,2,51.6666666666667,"Male"
"236","210719_a41",14610319,794.307417295195,653.145291226835,0,"time","98L","pine","aM","vM","L","a","aMvM",2.71108065509717,1.91677323780198,2.05793536387034,1,"14610319_98LaMvM","98L_aM_vM.mp4",7,"Version1","https://gorilla.sc/uploads/schedule/14610319?filename=98LaMvMmp4-92-2.weba","Block1",1,79,"/Users/kechun/Documents/GitHub/PerMaSC/Maskanalysis/questionnaire/adult randomizer/data_exp_58324-v8_task-b6hw.csv",76,3,8,"Windows 10","Chrome 92.0.4515.107","Version1",51,8,"Male","English","Born and raised in the UK",NA,"Yes sometimes",2,3,"low volume and pronunciation without being able to lip read",2,1,"Everything worked well","",NA,"",NA,"none","One of the questions in Level 2 text on screen should say 'kerb' not 'curb'!","210719_a41","98L",653.145291226835,"Adults","aM","vM","L","Acoustic Mask","Visual Mask","Low Predictability","0","aMvM",79,3,51.6666666666667,"Male"
"323","210719_c12",14456668,5683.39750400003,5571.13000400005,0,"I dont' know","65H","herd","aM","vM","H","c","aMvM",8.02636517939544,2.34296767539541,2.45523517539539,1,"14456668_65HaMvM","65H_aM_vM.mp4",7,"Version2","https://gorilla.sc/uploads/schedule/14456668?filename=65HaMvMmp4-13-2.weba","Block1",3,4,"/Users/kechun/Documents/GitHub/PerMaSC/Maskanalysis/questionnaire/child randomizer/data_exp_58325-v3_task-tucf.csv",16,1,3,"Chromium OS 13904.77.0","Chrome 91.0.4472.147","Version2",10,7,"Female","English and another language (bilingual)","Born and raised in the UK",NA,"I don't know",2,1,NA,1,1,"Everything worked well",NA,NA,NA,NA,NA,NA,"210719_c12","65H",5571.13000400005,"Children","aM","vM","H","Acoustic Mask","Visual Mask","High Predictability","0","aMvM",4,1,10.5833333333333,"Female"
"428","210719_c26",14526592,1034.83938448773,926.735408602498,0,"'fame'","50L","flame","aM","vNM","L","c","aMvNM",3.38549494567201,2.35065556118428,2.45875953706951,1,"14526592_50LaMvNM","50L_aM_vNM.mp4",7,"Version4","https://gorilla.sc/uploads/schedule/14526592?filename=50LaMvNMmp4-15-2.weba","Block1",1,6,"/Users/kechun/Documents/GitHub/PerMaSC/Maskanalysis/questionnaire/child randomizer/data_exp_58325-v5_task-gv44.csv",16,1,5,"Windows 10","Chrome 92.0.4515.107","Version4",11,4,"Female","English","Born and raised in the UK",NA,"No",2,2,"They have limited experience of communicating with someone with a face mask",2,1,"Everything worked well",NA,NA,NA,NA,"","","210719_c26","50L",926.735408602498,"Children","aM","vNM","L","Acoustic Mask","No Visual Mask","Low Predictability","0","aMvNM",6,1,11.3333333333333,"Female"
"493","210719_c29",14956811,393.773939513221,198.107930005401,0,"spoold","121L","spool","aM","vM","L","c","aMvM",2.5247124647612,2.13093852524798,2.3266045347558,1,"14956811_121LaMvM","121L_aM_vM.mp4",7,"Version2","https://gorilla.sc/uploads/schedule/14956811?filename=121LaMvMmp4-91-2.weba","Block1",3,78,"/Users/kechun/Documents/GitHub/PerMaSC/Maskanalysis/questionnaire/child randomizer/data_exp_58325-v9_task-tucf.csv",76,3,9,"Windows 10","Chrome 92.0.4515.107","Version2",11,7,"Female","English","Born and raised in the UK","","No",2,1,"Muffled Speech",2,1,"","There were issues with the videos","","","","When I clicked on the video the screen went white and i didnt know if it was playing because i couldn't hear. It happened 3 times.","","210719_c29","121L",198.107930005401,"Children","aM","vM","L","Acoustic Mask","Visual Mask","Low Predictability","0","aMvM",78,3,11.5833333333333,"Female"
"517","210719_c29",14956811,313.586915749411,130.738983299911,0,"cars?","21L","clerk","aM","vNM","L","c","aMvNM",2.47243973412874,2.15885281837933,2.34170075082883,1,"14956811_21LaMvNM","21L_aM_vNM.mp4",7,"Version2","https://gorilla.sc/uploads/schedule/14956811?filename=21LaMvNMmp4-80-2.weba","Block1",3,67,"/Users/kechun/Documents/GitHub/PerMaSC/Maskanalysis/questionnaire/child randomizer/data_exp_58325-v9_task-tucf.csv",76,3,9,"Windows 10","Chrome 92.0.4515.107","Version2",11,7,"Female","English","Born and raised in the UK","","No",2,1,"Muffled Speech",2,1,"","There were issues with the videos","","","","When I clicked on the video the screen went white and i didnt know if it was playing because i couldn't hear. It happened 3 times.","","210719_c29","21L",130.738983299911,"Children","aM","vNM","L","Acoustic Mask","No Visual Mask","Low Predictability","0","aMvNM",67,3,11.5833333333333,"Female"
"536","210719_c29",14956811,1275.9078321006,1229.2715821006,0,"sounds like boy","3L","bay","aM","vM","L","c","aMvM",3.69359498845037,2.41768715634977,2.46432340634977,1,"14956811_3LaMvM","3L_aM_vM.mp4",7,"Version2","https://gorilla.sc/uploads/schedule/14956811?filename=3LaMvMmp4-16-2.weba","Block1",2,7,"/Users/kechun/Documents/GitHub/PerMaSC/Maskanalysis/questionnaire/child randomizer/data_exp_58325-v9_task-tucf.csv",16,1,9,"Windows 10","Chrome 92.0.4515.107","Version2",11,7,"Female","English","Born and raised in the UK","","No",2,1,"Muffled Speech",2,1,"","There were issues with the videos","","","","When I clicked on the video the screen went white and i didnt know if it was playing because i couldn't hear. It happened 3 times.","","210719_c29","3L",1229.2715821006,"Children","aM","vM","L","Acoustic Mask","Visual Mask","Low Predictability","0","aMvM",7,1,11.5833333333333,"Female"
"564","210719_c29",14956811,875.224374248885,666.303243296515,0,"cannot hear","74L","kick","aM","vNM","L","c","aMvNM",3.28807559588824,2.41285122163936,2.62177235259173,1,"14956811_74LaMvNM","74L_aM_vNM.mp4",7,"Version2","https://gorilla.sc/uploads/schedule/14956811?filename=74LaMvNMmp4-29-2.weba","Block1",2,20,"/Users/kechun/Documents/GitHub/PerMaSC/Maskanalysis/questionnaire/child randomizer/data_exp_58325-v9_task-tucf.csv",16,1,9,"Windows 10","Chrome 92.0.4515.107","Version2",11,7,"Female","English","Born and raised in the UK","","No",2,1,"Muffled Speech",2,1,"","There were issues with the videos","","","","When I clicked on the video the screen went white and i didnt know if it was playing because i couldn't hear. It happened 3 times.","","210719_c29","74L",666.303243296515,"Children","aM","vNM","L","Acoustic Mask","No Visual Mask","Low Predictability","0","aMvNM",20,1,11.5833333333333,"Female"
"577","210719_c29",14956811,535.096590061177,410.469506727847,0,"Is there a devoicing of b?","8L","blame","aM","vM","L","c","aMvM",2.30438712776112,1.76929053769994,1.89391762103327,1,"14956811_8LaMvM","8L_aM_vM.mp4",7,"Version2","https://gorilla.sc/uploads/schedule/14956811?filename=8LaMvMmp4-85-2.weba","Block1",3,72,"/Users/kechun/Documents/GitHub/PerMaSC/Maskanalysis/questionnaire/child randomizer/data_exp_58325-v9_task-tucf.csv",76,3,9,"Windows 10","Chrome 92.0.4515.107","Version2",11,7,"Female","English","Born and raised in the UK","","No",2,1,"Muffled Speech",2,1,"","There were issues with the videos","","","","When I clicked on the video the screen went white and i didnt know if it was playing because i couldn't hear. It happened 3 times.","","210719_c29","8L",410.469506727847,"Children","aM","vM","L","Acoustic Mask","Visual Mask","Low Predictability","0","aMvM",72,3,11.5833333333333,"Female"
"586","210719_c29",14956811,395.066132378758,84.1025907120874,0,"dust","9H","blast","aM","vNM","H","c","aMvNM",2.65720242532453,2.26213629294577,2.57309983461244,1,"14956811_9HaMvNM","9H_aM_vNM.mp4",7,"Version2","https://gorilla.sc/uploads/schedule/14956811?filename=9HaMvNMmp4-129-2.weba","Block1",4,114,"/Users/kechun/Documents/GitHub/PerMaSC/Maskanalysis/questionnaire/child randomizer/data_exp_58325-v9_task-tucf.csv",106,4,9,"Windows 10","Chrome 92.0.4515.107","Version2",11,7,"Female","English","Born and raised in the UK","","No",2,1,"Muffled Speech",2,1,"","There were issues with the videos","","","","When I clicked on the video the screen went white and i didnt know if it was playing because i couldn't hear. It happened 3 times.","","210719_c29","9H",84.1025907120874,"Children","aM","vNM","H","Acoustic Mask","No Visual Mask","High Predictability","0","aMvNM",114,4,11.5833333333333,"Female"
"619","210719_c47",14557278,5872.32339925812,5746.13161004244,0,"discard_she siad i don't know","134H","tin","aM","vM","H","c","aMvM",7.8594462806882,1.98712288143008,2.11331467064576,1,"14557278_134HaMvM","134H_aM_vM.mp4",7,"Version5","https://gorilla.sc/uploads/schedule/14557278?filename=134HaMvMmp4-29-2.weba","Block1",2,20,"/Users/kechun/Documents/GitHub/PerMaSC/Maskanalysis/questionnaire/child randomizer/data_exp_58325-v5_task-6srq.csv",16,1,5,"Windows 10","Chrome 92.0.4515.107","Version5",10,7,"Male","English","Born and raised in the UK",NA,"Yes sometimes",3,1,"He says he understands his teachers quite well when they wear face masks.",1,2,"Everything worked well",NA,NA,NA,NA,"A couple of times my child pressed next first instead of saying the word.","Very enjoyable","210719_c47","134H",5746.13161004244,"Children","aM","vM","H","Acoustic Mask","Visual Mask","High Predictability","0","aMvM",20,1,10.5833333333333,"Male"
"706","210719_c53",15074698,1133.12513107384,803.457538481219,0,"graft","103H","raft","aM","vNM","H","c","aMvNM",4.04368902636396,2.91056389529012,3.24023148788274,1,"15074698_103HaMvNM","103H_aM_vNM.mp4",7,"Version4","https://gorilla.sc/uploads/schedule/15074698?filename=103HaMvNMmp4-71-2.weba","Block1",2,60,"/Users/kechun/Documents/GitHub/PerMaSC/Maskanalysis/questionnaire/child randomizer/data_exp_58325-v9_task-gv44.csv",46,2,9,"Windows 10","Edge 92.0.902.67","Version4",11,1,"Male","English and another language (bilingual)","Born and raised in the UK","","Yes sometimes",2,2,"",2,1,"Everything worked well","","","","","","","210719_c53","103H",803.457538481219,"Children","aM","vNM","H","Acoustic Mask","No Visual Mask","High Predictability","0","aMvNM",60,2,11.0833333333333,"Male"
"716","210719_c53",15074698,902.740141085933,729.785279974754,0,"sick?","114H","silk","aM","vM","H","c","aMvM",2.80074109531893,1.898000954233,2.07095581534418,1,"15074698_114HaMvM","114H_aM_vM.mp4",7,"Version4","https://gorilla.sc/uploads/schedule/15074698?filename=114HaMvMmp4-61-2.weba","Block1",2,50,"/Users/kechun/Documents/GitHub/PerMaSC/Maskanalysis/questionnaire/child randomizer/data_exp_58325-v9_task-gv44.csv",46,2,9,"Windows 10","Edge 92.0.902.67","Version4",11,1,"Male","English and another language (bilingual)","Born and raised in the UK","","Yes sometimes",2,2,"",2,1,"Everything worked well","","","","","","","210719_c53","114H",729.785279974754,"Children","aM","vM","H","Acoustic Mask","Visual Mask","High Predictability","0","aMvM",50,2,11.0833333333333,"Male"
"720","210719_c53",15074698,557.260347666385,410.270995814645,0,"slink?","118H","sling","aM","vM","H","c","aMvM",2.70865733246904,2.15139698480266,2.2983863366544,1,"15074698_118HaMvM","118H_aM_vM.mp4",7,"Version4","https://gorilla.sc/uploads/schedule/15074698?filename=118HaMvMmp4-77-2.weba","Block1",3,64,"/Users/kechun/Documents/GitHub/PerMaSC/Maskanalysis/questionnaire/child randomizer/data_exp_58325-v9_task-gv44.csv",76,3,9,"Windows 10","Edge 92.0.902.67","Version4",11,1,"Male","English and another language (bilingual)","Born and raised in the UK","","Yes sometimes",2,2,"",2,1,"Everything worked well","","","","","","","210719_c53","118H",410.270995814645,"Children","aM","vM","H","Acoustic Mask","Visual Mask","High Predictability","0","aMvM",64,3,11.0833333333333,"Male"
"780","210719_c53",15074698,1274.42388566373,1157.30254557365,0,"cannot figure out what the child said","58L","goal","aM","vNM","L","c","aMvNM",3.22829457781972,1.95387069215599,2.07099203224607,1,"15074698_58LaMvNM","58L_aM_vNM.mp4",7,"Version4","https://gorilla.sc/uploads/schedule/15074698?filename=58LaMvNMmp4-47-2.weba","Block1",2,36,"/Users/kechun/Documents/GitHub/PerMaSC/Maskanalysis/questionnaire/child randomizer/data_exp_58325-v9_task-gv44.csv",46,2,9,"Windows 10","Edge 92.0.902.67","Version4",11,1,"Male","English and another language (bilingual)","Born and raised in the UK","","Yes sometimes",2,2,"",2,1,"Everything worked well","","","","","","","210719_c53","58L",1157.30254557365,"Children","aM","vNM","L","Acoustic Mask","No Visual Mask","Low Predictability","0","aMvNM",36,2,11.0833333333333,"Male"
"840","210719_c66",14758562,711.562047173278,463.960278328028,0,"discard_spoon","121H","spool","aNM","vM","H","c","aNMvM",2.54978819368465,1.83822614651137,2.08582791535662,1,"14758562_121HaNMvM","121H_aNM_vM.mp4",7,"Version1","https://gorilla.sc/uploads/schedule/14758562?filename=audioFile-11-2.weba","Block1",3,2,"/Users/kechun/Documents/GitHub/PerMaSC/Maskanalysis/questionnaire/child randomizer/data_exp_58325-v9_task-l3g6.csv",16,1,9,"Windows 10","Chrome 92.0.4515.107","Version1",10,5,"Male","English","Born and raised in the UK","","Yes sometimes",4,3,"",1,1,"Everything worked well","","","","","NO","MY CHILD ENJOID","210719_c66","121H",463.960278328028,"Children","aNM","vM","H","No Acoustic Mask","Visual Mask","High Predictability","0","aNMvM",2,1,10.4166666666667,"Male"
"871","210719_c66",14758562,402.222493409793,70.5686533840431,0,"discard_tops","28H","cops","aM","vNM","H","c","aMvNM",2.51187553207927,2.10965303866948,2.44130687869523,1,"14758562_28HaMvNM","28H_aM_vNM.mp4",7,"Version1","https://gorilla.sc/uploads/schedule/14758562?filename=audioFile-116-2.weba","Block1",4,101,"/Users/kechun/Documents/GitHub/PerMaSC/Maskanalysis/questionnaire/child randomizer/data_exp_58325-v9_task-l3g6.csv",106,4,9,"Windows 10","Chrome 92.0.4515.107","Version1",10,5,"Male","English","Born and raised in the UK","","Yes sometimes",4,3,"",1,1,"Everything worked well","","","","","NO","MY CHILD ENJOID","210719_c66","28H",70.5686533840431,"Children","aM","vNM","H","Acoustic Mask","No Visual Mask","High Predictability","0","aMvNM",101,4,10.4166666666667,"Male"
"872","210719_c66",14758562,271.289343382606,161.218673447966,0,"discard_bar","2H","barn","aM","vM","H","c","aMvM",2.21779961358249,1.94651027019988,2.05658094013452,1,"14758562_2HaMvM","2H_aM_vM.mp4",7,"Version1","https://gorilla.sc/uploads/schedule/14758562?filename=audioFile-99-2.weba","Block1",1,86,"/Users/kechun/Documents/GitHub/PerMaSC/Maskanalysis/questionnaire/child randomizer/data_exp_58325-v9_task-l3g6.csv",76,3,9,"Windows 10","Chrome 92.0.4515.107","Version1",10,5,"Male","English","Born and raised in the UK","","Yes sometimes",4,3,"",1,1,"Everything worked well","","","","","NO","MY CHILD ENJOID","210719_c66","2H",161.218673447966,"Children","aM","vM","H","Acoustic Mask","Visual Mask","High Predictability","0","aMvM",86,3,10.4166666666667,"Male"
"879","210719_c66",14758562,382.956990625933,280.544788244983,0,"discard_deaf","38H","den","aNM","vNM","H","c","aNMvNM",2.82901541858362,2.44605842795769,2.54847063033864,1,"14758562_38HaNMvNM","38H_aNM_vNM.mp4",7,"Version1","https://gorilla.sc/uploads/schedule/14758562?filename=audioFile-27-2.weba","Block1",3,18,"/Users/kechun/Documents/GitHub/PerMaSC/Maskanalysis/questionnaire/child randomizer/data_exp_58325-v9_task-l3g6.csv",16,1,9,"Windows 10","Chrome 92.0.4515.107","Version1",10,5,"Male","English","Born and raised in the UK","","Yes sometimes",4,3,"",1,1,"Everything worked well","","","","","NO","MY CHILD ENJOID","210719_c66","38H",280.544788244983,"Children","aNM","vNM","H","No Acoustic Mask","No Visual Mask","High Predictability","0","aNMvNM",18,1,10.4166666666667,"Male"
"890","210719_c66",14758562,588.010332692647,328.213871052417,0,"discard_flop","51H","flock","aM","vM","H","c","aMvM",2.71337526800335,2.1253649353107,2.38516139695093,1,"14758562_51HaMvM","51H_aM_vM.mp4",7,"Version1","https://gorilla.sc/uploads/schedule/14758562?filename=audioFile-33-2.weba","Block1",3,24,"/Users/kechun/Documents/GitHub/PerMaSC/Maskanalysis/questionnaire/child randomizer/data_exp_58325-v9_task-l3g6.csv",16,1,9,"Windows 10","Chrome 92.0.4515.107","Version1",10,5,"Male","English","Born and raised in the UK","","Yes sometimes",4,3,"",1,1,"Everything worked well","","","","","NO","MY CHILD ENJOID","210719_c66","51H",328.213871052417,"Children","aM","vM","H","Acoustic Mask","Visual Mask","High Predictability","0","aMvM",24,1,10.4166666666667,"Male"
"910","210719_c66",14758562,544.772590792543,327.729138411603,0,"discard_tin","74L","kick","aNM","vNM","L","c","aNMvNM",2.99625479179667,2.45148220100413,2.66852565338507,1,"14758562_74LaNMvNM","74L_aNM_vNM.mp4",7,"Version1","https://gorilla.sc/uploads/schedule/14758562?filename=audioFile-67-2.weba","Block1",2,56,"/Users/kechun/Documents/GitHub/PerMaSC/Maskanalysis/questionnaire/child randomizer/data_exp_58325-v9_task-l3g6.csv",46,2,9,"Windows 10","Chrome 92.0.4515.107","Version1",10,5,"Male","English","Born and raised in the UK","","Yes sometimes",4,3,"",1,1,"Everything worked well","","","","","NO","MY CHILD ENJOID","210719_c66","74L",327.729138411603,"Children","aNM","vNM","L","No Acoustic Mask","No Visual Mask","Low Predictability","0","aNMvNM",56,2,10.4166666666667,"Male"
"926","210719_c66",14758562,350.815165730212,41.7650710333217,0,"discard_not","91L","notch","aM","vNM","L","c","aMvNM",2.54207478610172,2.19125962037151,2.5003097150684,1,"14758562_91LaMvNM","91L_aM_vNM.mp4",7,"Version1","https://gorilla.sc/uploads/schedule/14758562?filename=audioFile-91-2.weba","Block1",1,78,"/Users/kechun/Documents/GitHub/PerMaSC/Maskanalysis/questionnaire/child randomizer/data_exp_58325-v9_task-l3g6.csv",76,3,9,"Windows 10","Chrome 92.0.4515.107","Version1",10,5,"Male","English","Born and raised in the UK","","Yes sometimes",4,3,"",1,1,"Everything worked well","","","","","NO","MY CHILD ENJOID","210719_c66","91L",41.7650710333217,"Children","aM","vNM","L","Acoustic Mask","No Visual Mask","Low Predictability","0","aMvNM",78,3,10.4166666666667,"Male"
"965","210719_c71",14549435,752.876271881729,548.405438548439,0,"unsure_thrat?","133H","throat","aNM","vM","H","c","aNMvM",2.86555983681943,2.1126835649377,2.31715439827099,1,"14549435_133HaNMvM","133H_aNM_vM.mp4",7,"Version5","https://gorilla.sc/uploads/schedule/14549435?filename=133HaNMvMmp4-86-2.weba","Block1",1,73,"/Users/kechun/Documents/GitHub/PerMaSC/Maskanalysis/questionnaire/child randomizer/data_exp_58325-v5_task-6srq.csv",76,3,5,"Chromium OS 13904.77.0","Chrome 91.0.4472.147","Version5",11,3,"Female","English and another language (bilingual)","Born and raised in the UK",NA,"No",2,3,"She can hear well but because of the face mask blocking direct speech coming through, it's easy to find that normal speech as become muffled and difficult to hear. It makes listening a harder task.",2,1,"Everything worked well",NA,NA,NA,NA,"N/A","It was done well and efficiently, and both me and my daughter enjoyed it. In the future, if there are any online research opportunities like this, we'd be interested to take part!","210719_c71","133H",548.405438548439,"Children","aNM","vM","H","No Acoustic Mask","Visual Mask","High Predictability","0","aNMvM",73,3,11.25,"Female"
"988","210719_c71",14549435,1340.87504279276,1241.69080366233,0,"varn","2L","barn","aM","vM","L","c","aMvM",3.19613359495555,1.85525855216279,1.95444279129322,1,"14549435_2LaMvM","2L_aM_vM.mp4",7,"Version5","https://gorilla.sc/uploads/schedule/14549435?filename=2LaMvMmp4-92-2.weba","Block1",1,79,"/Users/kechun/Documents/GitHub/PerMaSC/Maskanalysis/questionnaire/child randomizer/data_exp_58325-v5_task-6srq.csv",76,3,5,"Chromium OS 13904.77.0","Chrome 91.0.4472.147","Version5",11,3,"Female","English and another language (bilingual)","Born and raised in the UK",NA,"No",2,3,"She can hear well but because of the face mask blocking direct speech coming through, it's easy to find that normal speech as become muffled and difficult to hear. It makes listening a harder task.",2,1,"Everything worked well",NA,NA,NA,NA,"N/A","It was done well and efficiently, and both me and my daughter enjoyed it. In the future, if there are any online research opportunities like this, we'd be interested to take part!","210719_c71","2L",1241.69080366233,"Children","aM","vM","L","Acoustic Mask","Visual Mask","Low Predictability","0","aMvM",79,3,11.25,"Female"
"1001","210719_c71",14549435,2236.85810967433,1987.6887914925,0,"dark","43L","dove","aM","vM","L","c","aMvM",4.22244318425859,1.98558507458426,2.23475439276609,1,"14549435_43LaMvM","43L_aM_vM.mp4",7,"Version5","https://gorilla.sc/uploads/schedule/14549435?filename=43LaMvMmp4-17-2.weba","Block1",2,8,"/Users/kechun/Documents/GitHub/PerMaSC/Maskanalysis/questionnaire/child randomizer/data_exp_58325-v5_task-6srq.csv",16,1,5,"Chromium OS 13904.77.0","Chrome 91.0.4472.147","Version5",11,3,"Female","English and another language (bilingual)","Born and raised in the UK",NA,"No",2,3,"She can hear well but because of the face mask blocking direct speech coming through, it's easy to find that normal speech as become muffled and difficult to hear. It makes listening a harder task.",2,1,"Everything worked well",NA,NA,NA,NA,"N/A","It was done well and efficiently, and both me and my daughter enjoyed it. In the future, if there are any online research opportunities like this, we'd be interested to take part!","210719_c71","43L",1987.6887914925,"Children","aM","vM","L","Acoustic Mask","Visual Mask","Low Predictability","0","aMvM",8,1,11.25,"Female"
"1084","210723_a76",14582654,1000.90347259005,867.791439790726,0,"tim?","134L","tin","aM","vM","L","a","aMvM",2.78100131339728,1.78009784080723,1.91320987360655,1,"14582654_134LaMvM","134L_aM_vM.mp4",7,"Version8","https://gorilla.sc/uploads/schedule/14582654?filename=134LaMvMmp4-132-2.weba","Block1",2,117,"/Users/kechun/Documents/GitHub/PerMaSC/Maskanalysis/questionnaire/adult randomizer/data_exp_58324-v8_task-fbmh.csv",106,4,8,"Windows 10","Chrome 92.0.4515.107","Version8",21,8,"Female","English","Born and raised in the UK",NA,"Yes sometimes",3,1,"Sometimes there is absolutely no problem understanding and sometimes it is quite hard.",2,1,"Everything worked well","",NA,"",NA,"Sometimes it took a while to load my responses.","I really enjoyed doing it - than you so much!","210723_a76","134L",867.791439790726,"Adults","aM","vM","L","Acoustic Mask","Visual Mask","Low Predictability","0","aMvM",117,4,21.6666666666667,"Female"
"1094","210723_a76",14582654,245.858816558851,13.3788579818614,0,"car?_orcutoff?","17L","calf","aM","vNM","L","a","aMvNM",2.96930361011877,2.72344479355992,2.95592475213691,1,"14582654_17LaMvNM","17L_aM_vNM.mp4",7,"Version8","https://gorilla.sc/uploads/schedule/14582654?filename=17LaMvNMmp4-103-2.weba","Block1",4,90,"/Users/kechun/Documents/GitHub/PerMaSC/Maskanalysis/questionnaire/adult randomizer/data_exp_58324-v8_task-fbmh.csv",76,3,8,"Windows 10","Chrome 92.0.4515.107","Version8",21,8,"Female","English","Born and raised in the UK",NA,"Yes sometimes",3,1,"Sometimes there is absolutely no problem understanding and sometimes it is quite hard.",2,1,"Everything worked well","",NA,"",NA,"Sometimes it took a while to load my responses.","I really enjoyed doing it - than you so much!","210723_a76","17L",13.3788579818614,"Adults","aM","vNM","L","Acoustic Mask","No Visual Mask","Low Predictability","0","aMvNM",90,3,21.6666666666667,"Female"
"1109","210723_a76",14582654,535.736507364934,337.008092064394,0,"cop?","32L","crop","aNM","vM","L","a","aNMvM",2.88027042774237,2.34453392037744,2.54326233567798,1,"14582654_32LaNMvM","32L_aNM_vM.mp4",7,"Version8","https://gorilla.sc/uploads/schedule/14582654?filename=32LaNMvMmp4-38-2.weba","Block1",1,29,"/Users/kechun/Documents/GitHub/PerMaSC/Maskanalysis/questionnaire/adult randomizer/data_exp_58324-v8_task-fbmh.csv",16,1,8,"Windows 10","Chrome 92.0.4515.107","Version8",21,8,"Female","English","Born and raised in the UK",NA,"Yes sometimes",3,1,"Sometimes there is absolutely no problem understanding and sometimes it is quite hard.",2,1,"Everything worked well","",NA,"",NA,"Sometimes it took a while to load my responses.","I really enjoyed doing it - than you so much!","210723_a76","32L",337.008092064394,"Adults","aNM","vM","L","No Acoustic Mask","Visual Mask","Low Predictability","0","aNMvM",29,1,21.6666666666667,"Female"
"1132","210723_a76",14582654,1835.34566627006,1698.4841211312,0,"gran","60L","grin","aM","vM","L","a","aMvM",4.08848131816913,2.25313565189907,2.38999719703793,1,"14582654_60LaMvM","60L_aM_vM.mp4",7,"Version8","https://gorilla.sc/uploads/schedule/14582654?filename=60LaMvMmp4-20-2.weba","Block1",1,11,"/Users/kechun/Documents/GitHub/PerMaSC/Maskanalysis/questionnaire/adult randomizer/data_exp_58324-v8_task-fbmh.csv",16,1,8,"Windows 10","Chrome 92.0.4515.107","Version8",21,8,"Female","English","Born and raised in the UK",NA,"Yes sometimes",3,1,"Sometimes there is absolutely no problem understanding and sometimes it is quite hard.",2,1,"Everything worked well","",NA,"",NA,"Sometimes it took a while to load my responses.","I really enjoyed doing it - than you so much!","210723_a76","60L",1698.4841211312,"Adults","aM","vM","L","Acoustic Mask","Visual Mask","Low Predictability","0","aMvM",11,1,21.6666666666667,"Female"
"1136","210723_a76",14582654,567.936926837117,400.795253653287,0,"ahead","64L","hen","aM","vM","L","a","aMvM",2.69478102512355,2.12684409828643,2.29398577147026,1,"14582654_64LaMvM","64L_aM_vM.mp4",7,"Version8","https://gorilla.sc/uploads/schedule/14582654?filename=64LaMvMmp4-107-2.weba","Block1",2,92,"/Users/kechun/Documents/GitHub/PerMaSC/Maskanalysis/questionnaire/adult randomizer/data_exp_58324-v8_task-fbmh.csv",106,4,8,"Windows 10","Chrome 92.0.4515.107","Version8",21,8,"Female","English","Born and raised in the UK",NA,"Yes sometimes",3,1,"Sometimes there is absolutely no problem understanding and sometimes it is quite hard.",2,1,"Everything worked well","",NA,"",NA,"Sometimes it took a while to load my responses.","I really enjoyed doing it - than you so much!","210723_a76","64L",400.795253653287,"Adults","aM","vM","L","Acoustic Mask","Visual Mask","Low Predictability","0","aMvM",92,4,21.6666666666667,"Female"
"1239","210723_a78",14657603,338.213750497384,237.202083830694,0,"plane","50L","flame","aNM","vNM","L","a","aNMvNM",2.7149564645653,2.37674271406792,2.47775438073461,1,"14657603_50LaNMvNM","50L_aNM_vNM.mp4",7,"Version7","https://gorilla.sc/uploads/schedule/14657603?filename=50LaNMvNMmp4-119-2.weba","Block1",1,104,"/Users/kechun/Documents/GitHub/PerMaSC/Maskanalysis/questionnaire/adult randomizer/data_exp_58324-v9_task-tmfe.csv",106,4,9,"Windows 10","Chrome 92.0.4515.107","Version7",22,3,"Female","English","Born and raised in the UK","","Yes sometimes",3,4,"",5,3,"Everything worked well","","","","","","","210723_a78","50L",237.202083830694,"Adults","aNM","vNM","L","No Acoustic Mask","No Visual Mask","Low Predictability","0","aNMvNM",104,4,22.25,"Female"
"1243","210723_a78",14657603,685.62773464373,660.94559178657,0,"blue","57L","glue","aM","vM","L","a","aMvM",2.84589275715382,2.16026502251009,2.18494716536725,1,"14657603_57LaMvM","57L_aM_vM.mp4",7,"Version7","https://gorilla.sc/uploads/schedule/14657603?filename=57LaMvMmp4-131-2.weba","Block1",1,116,"/Users/kechun/Documents/GitHub/PerMaSC/Maskanalysis/questionnaire/adult randomizer/data_exp_58324-v9_task-tmfe.csv",106,4,9,"Windows 10","Chrome 92.0.4515.107","Version7",22,3,"Female","English","Born and raised in the UK","","Yes sometimes",3,4,"",5,3,"Everything worked well","","","","","","","210723_a78","57L",660.94559178657,"Adults","aM","vM","L","Acoustic Mask","Visual Mask","Low Predictability","0","aMvM",116,4,22.25,"Female"
"1274","210723_a78",14657603,396.543076457328,310.889484136778,0,"maim?","8L","blame","aNM","vM","L","a","aNMvM",2.1386377790613,1.74209470260397,1.82774829492452,1,"14657603_8LaNMvM","8L_aNM_vM.mp4",7,"Version7","https://gorilla.sc/uploads/schedule/14657603?filename=8LaNMvMmp4-30-2.weba","Block1",3,21,"/Users/kechun/Documents/GitHub/PerMaSC/Maskanalysis/questionnaire/adult randomizer/data_exp_58324-v9_task-tmfe.csv",16,1,9,"Windows 10","Chrome 92.0.4515.107","Version7",22,3,"Female","English","Born and raised in the UK","","Yes sometimes",3,4,"",5,3,"Everything worked well","","","","","","","210723_a78","8L",310.889484136778,"Adults","aNM","vM","L","No Acoustic Mask","Visual Mask","Low Predictability","0","aNMvM",21,1,22.25,"Female"
"1343","210723_a79",14566634,344.198019071528,211.080372012688,0,"purt?","35L","curb","aM","vM","L","a","aMvM",2.57165826841562,2.22746024934409,2.36057789640293,1,"14566634_35LaMvM","35L_aM_vM.mp4",7,"Version5","https://gorilla.sc/uploads/schedule/14566634?filename=35LaMvMmp4-108-2.weba","Block1",4,93,"/Users/kechun/Documents/GitHub/PerMaSC/Maskanalysis/questionnaire/adult randomizer/data_exp_58324-v8_task-klg9.csv",106,4,8,"Windows 10","Chrome 91.0.4472.124","Version5",21,5,"Male","English","Born and raised in the UK",NA,"Yes sometimes",4,3,"",2,2,"","There were issues with the videos",NA,"",NA,"Occasionally (maybe four or five times throughout the experiment) the video froze before the end, with audio unaffected. After this, the 'OK' button took a while to appear - so the recordings of my speech with a long gap of silence will be those for which the video was affected.","","210723_a79","35L",211.080372012688,"Adults","aM","vM","L","Acoustic Mask","Visual Mask","Low Predictability","0","aMvM",93,4,21.4166666666667,"Male"
"1350","210723_a79",14566634,394.220082995094,316.642911942424,0,"though?","42L","doll","aNM","vM","L","a","aNMvM",2.36503314220867,1.97081305921358,2.04839023026625,1,"14566634_42LaNMvM","42L_aNM_vM.mp4",7,"Version5","https://gorilla.sc/uploads/schedule/14566634?filename=42LaNMvMmp4-127-2.weba","Block1",4,112,"/Users/kechun/Documents/GitHub/PerMaSC/Maskanalysis/questionnaire/adult randomizer/data_exp_58324-v8_task-klg9.csv",106,4,8,"Windows 10","Chrome 91.0.4472.124","Version5",21,5,"Male","English","Born and raised in the UK",NA,"Yes sometimes",4,3,"",2,2,"","There were issues with the videos",NA,"",NA,"Occasionally (maybe four or five times throughout the experiment) the video froze before the end, with audio unaffected. After this, the 'OK' button took a while to appear - so the recordings of my speech with a long gap of silence will be those for which the video was affected.","","210723_a79","42L",316.642911942424,"Adults","aNM","vM","L","No Acoustic Mask","Visual Mask","Low Predictability","0","aNMvM",112,4,21.4166666666667,"Male"
"1351","210723_a79",14566634,509.50382367238,260.33450549055,0,"duck?","43L","dove","aM","vM","L","a","aMvM",2.49508889825664,1.98558507458426,2.23475439276609,1,"14566634_43LaMvM","43L_aM_vM.mp4",7,"Version5","https://gorilla.sc/uploads/schedule/14566634?filename=43LaMvMmp4-52-2.weba","Block1",2,41,"/Users/kechun/Documents/GitHub/PerMaSC/Maskanalysis/questionnaire/adult randomizer/data_exp_58324-v8_task-klg9.csv",46,2,8,"Windows 10","Chrome 91.0.4472.124","Version5",21,5,"Male","English","Born and raised in the UK",NA,"Yes sometimes",4,3,"",2,2,"","There were issues with the videos",NA,"",NA,"Occasionally (maybe four or five times throughout the experiment) the video froze before the end, with audio unaffected. After this, the 'OK' button took a while to appear - so the recordings of my speech with a long gap of silence will be those for which the video was affected.","","210723_a79","43L",260.33450549055,"Adults","aM","vM","L","Acoustic Mask","Visual Mask","Low Predictability","0","aMvM",41,2,21.4166666666667,"Male"
"1363","210723_a79",14566634,676.831624707059,552.869819151509,0,"grunt?","60H","grin","aM","vM","H","a","aMvM",3.02911821372851,2.35228658902145,2.476248394577,1,"14566634_60HaMvM","60H_aM_vM.mp4",7,"Version5","https://gorilla.sc/uploads/schedule/14566634?filename=60HaMvMmp4-87-2.weba","Block1",1,74,"/Users/kechun/Documents/GitHub/PerMaSC/Maskanalysis/questionnaire/adult randomizer/data_exp_58324-v8_task-klg9.csv",76,3,8,"Windows 10","Chrome 91.0.4472.124","Version5",21,5,"Male","English","Born and raised in the UK",NA,"Yes sometimes",4,3,"",2,2,"","There were issues with the videos",NA,"",NA,"Occasionally (maybe four or five times throughout the experiment) the video froze before the end, with audio unaffected. After this, the 'OK' button took a while to appear - so the recordings of my speech with a long gap of silence will be those for which the video was affected.","","210723_a79","60H",552.869819151509,"Adults","aM","vM","H","Acoustic Mask","Visual Mask","High Predictability","0","aMvM",74,3,21.4166666666667,"Male"
"1366","210723_a79",14566634,280.218600890582,146.685093946132,0,"hand","64H","hen","aM","vM","H","a","aMvM",2.33681965628841,2.05660105539783,2.19013456234228,1,"14566634_64HaMvM","64H_aM_vM.mp4",7,"Version5","https://gorilla.sc/uploads/schedule/14566634?filename=64HaMvMmp4-51-2.weba","Block1",2,40,"/Users/kechun/Documents/GitHub/PerMaSC/Maskanalysis/questionnaire/adult randomizer/data_exp_58324-v8_task-klg9.csv",46,2,8,"Windows 10","Chrome 91.0.4472.124","Version5",21,5,"Male","English","Born and raised in the UK",NA,"Yes sometimes",4,3,"",2,2,"","There were issues with the videos",NA,"",NA,"Occasionally (maybe four or five times throughout the experiment) the video froze before the end, with audio unaffected. After this, the 'OK' button took a while to appear - so the recordings of my speech with a long gap of silence will be those for which the video was affected.","","210723_a79","64H",146.685093946132,"Adults","aM","vM","H","Acoustic Mask","Visual Mask","High Predictability","0","aMvM",40,2,21.4166666666667,"Male"
"1509","210725_a118",14685140,1561.10705382326,1400.20108791413,0,"mud","89L","mug","aM","vNM","L","a","aMvNM",4.14138729797395,2.58028024415069,2.74118621005982,1,"14685140_89LaMvNM","89L_aM_vNM.mp4",7,"Version3","https://gorilla.sc/uploads/schedule/14685140?filename=audioFile-115-2.weba","Block1",3,100,"/Users/kechun/Documents/GitHub/PerMaSC/Maskanalysis/questionnaire/adult randomizer/data_exp_58324-v9_task-75wy.csv",106,4,9,"Mac OS 10.15","Firefox 90.0","Version3",50,11,"Male","English","Born and raised in the UK","","Yes sometimes",3,3,"",2,2,"Everything worked well","There were issues with the videos","","","","Sometimes the video box with the arrow on was smaller and then the video appeared in the bottom right of the browser instead of in the middle, until the Next button appeared, when it went back to normal. I could always see the video, but it wasn't always in the same place.","","210725_a118","89L",1400.20108791413,"Adults","aM","vNM","L","Acoustic Mask","No Visual Mask","Low Predictability","0","aMvNM",100,4,50.9166666666667,"Male"
"1516","210725_a118",14685140,1375.92379439186,1236.78474838882,0,"pearl","96L","pile","aM","vM","L","a","aMvM",3.49022884278693,2.11430504839507,2.25344409439811,1,"14685140_96LaMvM","96L_aM_vM.mp4",7,"Version3","https://gorilla.sc/uploads/schedule/14685140?filename=audioFile-12-2.weba","Block1",2,3,"/Users/kechun/Documents/GitHub/PerMaSC/Maskanalysis/questionnaire/adult randomizer/data_exp_58324-v9_task-75wy.csv",16,1,9,"Mac OS 10.15","Firefox 90.0","Version3",50,11,"Male","English","Born and raised in the UK","","Yes sometimes",3,3,"",2,2,"Everything worked well","There were issues with the videos","","","","Sometimes the video box with the arrow on was smaller and then the video appeared in the bottom right of the browser instead of in the middle, until the Next button appeared, when it went back to normal. I could always see the video, but it wasn't always in the same place.","","210725_a118","96L",1236.78474838882,"Adults","aM","vM","L","Acoustic Mask","Visual Mask","Low Predictability","0","aMvM",3,1,50.9166666666667,"Male"
"1530","210725_a120",14668484,1448.08112761051,1235.83261570581,0,"sleeves","111L","seeds","aM","vM","L","a","aMvM",3.15646301177502,1.70838188416451,1.92063039606921,1,"14668484_111LaMvM","111L_aM_vM.mp4",7,"Version4","https://gorilla.sc/uploads/schedule/14668484?filename=111LaMvMmp4-110-2.weba","Block1",2,95,"/Users/kechun/Documents/GitHub/PerMaSC/Maskanalysis/questionnaire/adult randomizer/data_exp_58324-v9_task-7xnq.csv",106,4,9,"Windows 10","Chrome 92.0.4515.107","Version4",20,9,"Male","English","Born and raised in the UK","","Yes sometimes",3,3,"",3,2,"","There were issues with the videos","","","","Around 3 videos lagged whilst playing","","210725_a120","111L",1235.83261570581,"Adults","aM","vM","L","Acoustic Mask","Visual Mask","Low Predictability","0","aMvM",95,4,20.75,"Male"
"1540","210725_a120",14668484,1582.21946674489,1360.39657942097,0,"I don't know","121L","spool","aNM","vNM","L","a","aNMvNM",3.67533371992754,2.09311425318265,2.31493714050657,1,"14668484_121LaNMvNM","121L_aNM_vNM.mp4",7,"Version4","https://gorilla.sc/uploads/schedule/14668484?filename=121LaNMvNMmp4-84-2.weba","Block1",3,71,"/Users/kechun/Documents/GitHub/PerMaSC/Maskanalysis/questionnaire/adult randomizer/data_exp_58324-v9_task-7xnq.csv",76,3,9,"Windows 10","Chrome 92.0.4515.107","Version4",20,9,"Male","English","Born and raised in the UK","","Yes sometimes",3,3,"",3,2,"","There were issues with the videos","","","","Around 3 videos lagged whilst playing","","210725_a120","121L",1360.39657942097,"Adults","aNM","vNM","L","No Acoustic Mask","No Visual Mask","Low Predictability","0","aNMvNM",71,3,20.75,"Male"
"1566","210725_a120",14668484,1519.08103068611,1336.23309823661,0,"I don't know","21L","clerk","aM","vM","L","a","aMvM",3.67793384906544,2.15885281837933,2.34170075082883,1,"14668484_21LaMvM","21L_aM_vM.mp4",7,"Version4","https://gorilla.sc/uploads/schedule/14668484?filename=21LaMvMmp4-89-2.weba","Block1",3,76,"/Users/kechun/Documents/GitHub/PerMaSC/Maskanalysis/questionnaire/adult randomizer/data_exp_58324-v9_task-7xnq.csv",76,3,9,"Windows 10","Chrome 92.0.4515.107","Version4",20,9,"Male","English","Born and raised in the UK","","Yes sometimes",3,3,"",3,2,"","There were issues with the videos","","","","Around 3 videos lagged whilst playing","","210725_a120","21L",1336.23309823661,"Adults","aM","vM","L","Acoustic Mask","Visual Mask","Low Predictability","0","aMvM",76,3,20.75,"Male"
"1579","210725_a120",14668484,1591.16944318467,1471.26110985132,0,"crowns","33L","crown","aM","vM","L","a","aMvM",3.54932110894134,1.95815166575667,2.07805999909002,1,"14668484_33LaMvM","33L_aM_vM.mp4",7,"Version4","https://gorilla.sc/uploads/schedule/14668484?filename=33LaMvMmp4-122-2.weba","Block1",2,107,"/Users/kechun/Documents/GitHub/PerMaSC/Maskanalysis/questionnaire/adult randomizer/data_exp_58324-v9_task-7xnq.csv",106,4,9,"Windows 10","Chrome 92.0.4515.107","Version4",20,9,"Male","English","Born and raised in the UK","","Yes sometimes",3,3,"",3,2,"","There were issues with the videos","","","","Around 3 videos lagged whilst playing","","210725_a120","33L",1471.26110985132,"Adults","aM","vM","L","Acoustic Mask","Visual Mask","Low Predictability","0","aMvM",107,4,20.75,"Male"
"1589","210725_a120",14668484,1176.20411432804,997.34355057748,0,"I don't know","43L","dove","aNM","vM","L","a","aNMvM",3.15567469074071,1.97947057641267,2.15833114016323,1,"14668484_43LaNMvM","43L_aNM_vM.mp4",7,"Version4","https://gorilla.sc/uploads/schedule/14668484?filename=43LaNMvMmp4-119-2.weba","Block1",2,104,"/Users/kechun/Documents/GitHub/PerMaSC/Maskanalysis/questionnaire/adult randomizer/data_exp_58324-v9_task-7xnq.csv",106,4,9,"Windows 10","Chrome 92.0.4515.107","Version4",20,9,"Male","English","Born and raised in the UK","","Yes sometimes",3,3,"",3,2,"","There were issues with the videos","","","","Around 3 videos lagged whilst playing","","210725_a120","43L",997.34355057748,"Adults","aNM","vM","L","No Acoustic Mask","Visual Mask","Low Predictability","0","aNMvM",104,4,20.75,"Male"
"1591","210725_a120",14668484,2075.08794894124,1969.89319585481,0,"self-correction and I don't know","47H","drum","aM","vM","H","a","aMvM",4.26513983333325,2.19005188439201,2.29524663747844,1,"14668484_47HaMvM","47H_aM_vM.mp4",7,"Version4","https://gorilla.sc/uploads/schedule/14668484?filename=47HaMvMmp4-56-2.weba","Block1",4,45,"/Users/kechun/Documents/GitHub/PerMaSC/Maskanalysis/questionnaire/adult randomizer/data_exp_58324-v9_task-7xnq.csv",46,2,9,"Windows 10","Chrome 92.0.4515.107","Version4",20,9,"Male","English","Born and raised in the UK","","Yes sometimes",3,3,"",3,2,"","There were issues with the videos","","","","Around 3 videos lagged whilst playing","","210725_a120","47H",1969.89319585481,"Adults","aM","vM","H","Acoustic Mask","Visual Mask","High Predictability","0","aMvM",45,2,20.75,"Male"
"1603","210725_a120",14668484,1233.63660449672,1159.76283638076,0,"I don't know","62L","hay","aM","vM","L","a","aMvM",2.89240891111109,1.65877230661437,1.73264607473033,1,"14668484_62LaMvM","62L_aM_vM.mp4",7,"Version4","https://gorilla.sc/uploads/schedule/14668484?filename=62LaMvMmp4-77-2.weba","Block1",3,64,"/Users/kechun/Documents/GitHub/PerMaSC/Maskanalysis/questionnaire/adult randomizer/data_exp_58324-v9_task-7xnq.csv",76,3,9,"Windows 10","Chrome 92.0.4515.107","Version4",20,9,"Male","English","Born and raised in the UK","","Yes sometimes",3,3,"",3,2,"","There were issues with the videos","","","","Around 3 videos lagged whilst playing","","210725_a120","62L",1159.76283638076,"Adults","aM","vM","L","Acoustic Mask","Visual Mask","Low Predictability","0","aMvM",64,3,20.75,"Male"
"1615","210725_a120",14668484,1569.52923638525,1360.60810543288,0,"I don't know","74L","kick","aM","vM","L","a","aMvM",3.98238045802461,2.41285122163936,2.62177235259173,1,"14668484_74LaMvM","74L_aM_vM.mp4",7,"Version4","https://gorilla.sc/uploads/schedule/14668484?filename=74LaMvMmp4-133-2.weba","Block1",2,118,"/Users/kechun/Documents/GitHub/PerMaSC/Maskanalysis/questionnaire/adult randomizer/data_exp_58324-v9_task-7xnq.csv",106,4,9,"Windows 10","Chrome 92.0.4515.107","Version4",20,9,"Male","English","Born and raised in the UK","","Yes sometimes",3,3,"",3,2,"","There were issues with the videos","","","","Around 3 videos lagged whilst playing","","210725_a120","74L",1360.60810543288,"Adults","aM","vM","L","Acoustic Mask","Visual Mask","Low Predictability","0","aMvM",118,4,20.75,"Male"
"1945","210725_a156",14930256,1004.81313027311,685.162041684439,0,"'folks'","53H","frogs","aM","vM","H","a","aMvM",2.71268834960634,1.70787521933323,2.0275263079219,1,"14930256_53HaMvM","53H_aM_vM.mp4",7,"Version8","https://gorilla.sc/uploads/schedule/14930256?filename=53HaMvMmp4-132-2.weba","Block1",4,115,"/Users/kechun/Documents/GitHub/PerMaSC/Maskanalysis/questionnaire/adult randomizer/data_exp_58324-v9_task-fbmh.csv",104,4,9,"Windows 10","Chrome 92.0.4515.131","Version8",27,6,"Male","English","Born and raised in the UK","","No",2,1,"Usually I can understand others without any issue but some have struggled to understand me while I've worn a mask",2,2,"Everything worked well","","","","","","","210725_a156","53H",685.162041684439,"Adults","aM","vM","H","Acoustic Mask","Visual Mask","High Predictability","0","aMvM",115,4,27.5,"Male"
"1953","210725_a156",14930256,994.930271688158,827.788598504328,0,"'hat'","64L","hen","aM","vM","L","a","aMvM",3.12177436997459,2.12684409828643,2.29398577147026,1,"14930256_64LaMvM","64L_aM_vM.mp4",7,"Version8","https://gorilla.sc/uploads/schedule/14930256?filename=64LaMvMmp4-63-2.weba","Block1",2,50,"/Users/kechun/Documents/GitHub/PerMaSC/Maskanalysis/questionnaire/adult randomizer/data_exp_58324-v9_task-fbmh.csv",44,2,9,"Windows 10","Chrome 92.0.4515.131","Version8",27,6,"Male","English","Born and raised in the UK","","No",2,1,"Usually I can understand others without any issue but some have struggled to understand me while I've worn a mask",2,2,"Everything worked well","","","","","","","210725_a156","64L",827.788598504328,"Adults","aM","vM","L","Acoustic Mask","Visual Mask","Low Predictability","0","aMvM",50,2,27.5,"Male"
"1960","210725_a156",14930256,3742.72506503598,3472.39666867739,0,"'cheese'","72L","juice","aM","vM","L","a","aMvM",5.89707079031865,2.15434572528267,2.42467412164126,1,"14930256_72LaMvM","72L_aM_vM.mp4",7,"Version8","https://gorilla.sc/uploads/schedule/14930256?filename=72LaMvMmp4-128-2.weba","Block1",4,111,"/Users/kechun/Documents/GitHub/PerMaSC/Maskanalysis/questionnaire/adult randomizer/data_exp_58324-v9_task-fbmh.csv",104,4,9,"Windows 10","Chrome 92.0.4515.131","Version8",27,6,"Male","English","Born and raised in the UK","","No",2,1,"Usually I can understand others without any issue but some have struggled to understand me while I've worn a mask",2,2,"Everything worked well","","","","","","","210725_a156","72L",3472.39666867739,"Adults","aM","vM","L","Acoustic Mask","Visual Mask","Low Predictability","0","aMvM",111,4,27.5,"Male"
"2119","210725_a176",15219350,343.609622037035,188.183374265176,0,"slave","118L","sling","aM","vM","L","a","aMvM",2.67988018910484,2.3362705670678,2.49169681483966,1,"15219350_118LaMvM","118L_aM_vM.mp4",7,"Version7","https://gorilla.sc/uploads/schedule/15219350?filename=118LaMvMmp4-94-2.weba","Block1",3,81,"/Users/kechun/Documents/GitHub/PerMaSC/Maskanalysis/questionnaire/adult randomizer/data_exp_58324-v9_task-tmfe.csv",76,3,9,"Windows 10","Chrome 92.0.4515.159","Version7",20,8,"Female","English","Born and raised in the UK","","No",2,1,"Hasn't been a huge issue. Sometimes hard to understand in loud spaces",1,1,"Everything worked well","","","","","","","210725_a176","118L",188.183374265176,"Adults","aM","vM","L","Acoustic Mask","Visual Mask","Low Predictability","0","aMvM",81,3,20.6666666666667,"Female"
"2209","210725_a176",15219350,835.663911083774,623.795979536113,0,"mock","87L","mop","aM","vM","L","a","aMvM",2.94595038544173,2.11028647435796,2.32215440590562,1,"15219350_87LaMvM","87L_aM_vM.mp4",7,"Version7","https://gorilla.sc/uploads/schedule/15219350?filename=87LaMvMmp4-25-2.weba","Block1",4,16,"/Users/kechun/Documents/GitHub/PerMaSC/Maskanalysis/questionnaire/adult randomizer/data_exp_58324-v9_task-tmfe.csv",16,1,9,"Windows 10","Chrome 92.0.4515.159","Version7",20,8,"Female","English","Born and raised in the UK","","No",2,1,"Hasn't been a huge issue. Sometimes hard to understand in loud spaces",1,1,"Everything worked well","","","","","","","210725_a176","87L",623.795979536113,"Adults","aM","vM","L","Acoustic Mask","Visual Mask","Low Predictability","0","aMvM",16,1,20.6666666666667,"Female"
"2358","210725_a185",15129350,644.46639870317,247.62612092542,0,"punch","120L","sponge","aM","vNM","L","a","aMvNM",2.58288102256148,1.93841462385831,2.33525490163606,1,"15129350_120LaMvNM","120L_aM_vNM.mp4",7,"Version3","https://gorilla.sc/uploads/schedule/15129350?filename=120LaMvNMmp4-78-2.weba","Block1",2,65,"/Users/kechun/Documents/GitHub/PerMaSC/Maskanalysis/questionnaire/adult randomizer/data_exp_58324-v9_task-75wy.csv",76,3,9,"Mac OS 10.15.6","Chrome 91.0.4472.106","Version3",26,7,"Female","English and another language (bilingual)","Born and raised in the UK","","Yes sometimes",3,1,"Difficulty understanding others who wear face masks depends on the environment (noisy/quiet) as well as the pitch of the person speaking.",2,2,"Everything worked well","","","","","","","210725_a185","120L",247.62612092542,"Adults","aM","vNM","L","Acoustic Mask","No Visual Mask","Low Predictability","0","aMvNM",65,3,26.5833333333333,"Female"
"2392","210725_a185",15129350,2091.83792724389,1748.4966574026,0,"pots","28L","cops","aM","vM","L","a","aMvM",4.47416530046513,2.38232737322124,2.72566864306253,1,"15129350_28LaMvM","28L_aM_vM.mp4",7,"Version3","https://gorilla.sc/uploads/schedule/15129350?filename=28LaMvMmp4-16-2.weba","Block1",4,7,"/Users/kechun/Documents/GitHub/PerMaSC/Maskanalysis/questionnaire/adult randomizer/data_exp_58324-v9_task-75wy.csv",16,1,9,"Mac OS 10.15.6","Chrome 91.0.4472.106","Version3",26,7,"Female","English and another language (bilingual)","Born and raised in the UK","","Yes sometimes",3,1,"Difficulty understanding others who wear face masks depends on the environment (noisy/quiet) as well as the pitch of the person speaking.",2,2,"Everything worked well","","","","","","","210725_a185","28L",1748.4966574026,"Adults","aM","vM","L","Acoustic Mask","Visual Mask","Low Predictability","0","aMvM",7,1,26.5833333333333,"Female"
"2658","210725_a90",14625776,1977.61079615156,1853.64899059601,0,"nonword","60H","grin","aM","vNM","H","a","aMvNM",4.32989738517301,2.35228658902145,2.476248394577,1,"14625776_60HaMvNM","60H_aM_vNM.mp4",7,"Version3","https://gorilla.sc/uploads/schedule/14625776?filename=60HaMvNMmp4-11-2.weba","Block1",1,2,"/Users/kechun/Documents/GitHub/PerMaSC/Maskanalysis/questionnaire/adult randomizer/data_exp_58324-v9_task-75wy.csv",16,1,9,"Mac OS 10.15.7","Chrome 91.0.4472.114","Version3",36,0,"Male","English","Born and raised in the UK","","Yes sometimes",4,4,"Thinking back on incidents where I have struggled to understand people, there might have been other factors involved such as perspex screens and a large distant between us that compounded the problem.",1,1,"Everything worked well","","","","","","That was fun. Really intrigued to see the results if they are ever made public.","210725_a90","60H",1853.64899059601,"Adults","aM","vNM","H","Acoustic Mask","No Visual Mask","High Predictability","0","aMvNM",2,1,36,"Male"
"2728","210725_a96",14750145,1361.73933032426,1228.62729752494,0,"don't know","134L","tin","aM","vM","L","a","aMvM",3.14183717113149,1.78009784080723,1.91320987360655,1,"14750145_134LaMvM","134L_aM_vM.mp4",7,"Version8","https://gorilla.sc/uploads/schedule/14750145?filename=audioFile-67-2.weba","Block1",2,56,"/Users/kechun/Documents/GitHub/PerMaSC/Maskanalysis/questionnaire/adult randomizer/data_exp_58324-v9_task-fbmh.csv",46,2,9,"Mac OS 10.15.7","Chrome 92.0.4515.107","Version8",24,7,"Male","English","Born and raised in the UK","","Yes sometimes",3,2,"Generally fine when just face masks are involved, but more difficulty when trying to communicate though glass/plastic screens",2,3,"","","","There were issues with the voice recordings","","one interference of unexpected phone noises","","210725_a96","134L",1228.62729752494,"Adults","aM","vM","L","Acoustic Mask","Visual Mask","Low Predictability","0","aMvM",56,2,24.5833333333333,"Male"
"2743","210725_a96",14750145,968.65387606248,732.326991141849,0,"plop?","23L","clock","aM","vM","L","a","aMvM",3.27504044394631,2.30638656788383,2.54271345280446,1,"14750145_23LaMvM","23L_aM_vM.mp4",7,"Version8","https://gorilla.sc/uploads/schedule/14750145?filename=audioFile-53-2.weba","Block1",2,42,"/Users/kechun/Documents/GitHub/PerMaSC/Maskanalysis/questionnaire/adult randomizer/data_exp_58324-v9_task-fbmh.csv",46,2,9,"Mac OS 10.15.7","Chrome 92.0.4515.107","Version8",24,7,"Male","English","Born and raised in the UK","","Yes sometimes",3,2,"Generally fine when just face masks are involved, but more difficulty when trying to communicate though glass/plastic screens",2,3,"","","","There were issues with the voice recordings","","one interference of unexpected phone noises","","210725_a96","23L",732.326991141849,"Adults","aM","vM","L","Acoustic Mask","Visual Mask","Low Predictability","0","aMvM",42,2,24.5833333333333,"Male"
"2794","210725_a96",14750145,161.77666122064,18.1206677887604,0,"glid","79H","lid","aM","vNM","H","a","aMvNM",2.18767909039974,2.0259024291791,2.16955842261098,1,"14750145_79HaMvNM","79H_aM_vNM.mp4",7,"Version8","https://gorilla.sc/uploads/schedule/14750145?filename=audioFile-78-2.weba","Block1",3,65,"/Users/kechun/Documents/GitHub/PerMaSC/Maskanalysis/questionnaire/adult randomizer/data_exp_58324-v9_task-fbmh.csv",76,3,9,"Mac OS 10.15.7","Chrome 92.0.4515.107","Version8",24,7,"Male","English","Born and raised in the UK","","Yes sometimes",3,2,"Generally fine when just face masks are involved, but more difficulty when trying to communicate though glass/plastic screens",2,3,"","","","There were issues with the voice recordings","","one interference of unexpected phone noises","","210725_a96","79H",18.1206677887604,"Adults","aM","vNM","H","Acoustic Mask","No Visual Mask","High Predictability","0","aMvNM",65,3,24.5833333333333,"Male"
"2835","210725_c122",15102120,1927.89621567944,1706.07332835552,0,"school","121L","spool","aNM","vNM","L","c","aNMvNM",4.02101046886209,2.09311425318265,2.31493714050657,1,"15102120_121LaNMvNM","121L_aNM_vNM.mp4",7,"Version4","https://gorilla.sc/uploads/schedule/15102120?filename=121LaNMvNMmp4-89-2.weba","Block1",3,76,"/Users/kechun/Documents/GitHub/PerMaSC/Maskanalysis/questionnaire/child randomizer/data_exp_58325-v9_task-gv44.csv",76,3,9,"Windows 10","Chrome 92.0.4515.131","Version4",11,0,"Female","English","Born and raised in the UK","","Yes sometimes",2,2,"",3,2,"Everything worked well","","","","","","It was quite long","210725_c122","121L",1706.07332835552,"Children","aNM","vNM","L","No Acoustic Mask","No Visual Mask","Low Predictability","0","aNMvNM",76,3,11,"Female"
"2841","210725_c122",15102120,1116.5375017272,957.199217898751,0,"one","128L","swan","aM","vNM","L","c","aMvNM",2.98426864064563,1.86773113891843,2.02706942274688,1,"15102120_128LaMvNM","128L_aM_vNM.mp4",7,"Version4","https://gorilla.sc/uploads/schedule/15102120?filename=128LaMvNMmp4-32-2.weba","Block1",2,23,"/Users/kechun/Documents/GitHub/PerMaSC/Maskanalysis/questionnaire/child randomizer/data_exp_58325-v9_task-gv44.csv",16,1,9,"Windows 10","Chrome 92.0.4515.131","Version4",11,0,"Female","English","Born and raised in the UK","","Yes sometimes",2,2,"",3,2,"Everything worked well","","","","","","It was quite long","210725_c122","128L",957.199217898751,"Children","aM","vNM","L","Acoustic Mask","No Visual Mask","Low Predictability","0","aMvNM",23,1,11,"Female"
"2869","210725_c122",15102120,1315.97779210025,1037.86089677501,0,"discard_craft","29L","crash","aM","vM","L","c","aMvM",3.64103805798879,2.32506026588854,2.60317716121378,1,"15102120_29LaMvM","29L_aM_vM.mp4",7,"Version4","https://gorilla.sc/uploads/schedule/15102120?filename=29LaMvMmp4-43-2.weba","Block1",1,32,"/Users/kechun/Documents/GitHub/PerMaSC/Maskanalysis/questionnaire/child randomizer/data_exp_58325-v9_task-gv44.csv",46,2,9,"Windows 10","Chrome 92.0.4515.131","Version4",11,0,"Female","English","Born and raised in the UK","","Yes sometimes",2,2,"",3,2,"Everything worked well","","","","","","It was quite long","210725_c122","29L",1037.86089677501,"Children","aM","vM","L","Acoustic Mask","Visual Mask","Low Predictability","0","aMvM",32,2,11,"Female"
"2879","210725_c122",15102120,865.522680669155,556.882750113575,0,"discard_doubt","39L","dent","aNM","vM","L","c","aNMvM",2.77665533463446,1.9111326539653,2.21977258452088,1,"15102120_39LaNMvM","39L_aNM_vM.mp4",7,"Version4","https://gorilla.sc/uploads/schedule/15102120?filename=39LaNMvMmp4-66-2.weba","Block1",1,55,"/Users/kechun/Documents/GitHub/PerMaSC/Maskanalysis/questionnaire/child randomizer/data_exp_58325-v9_task-gv44.csv",46,2,9,"Windows 10","Chrome 92.0.4515.131","Version4",11,0,"Female","English","Born and raised in the UK","","Yes sometimes",2,2,"",3,2,"Everything worked well","","","","","","It was quite long","210725_c122","39L",556.882750113575,"Children","aNM","vM","L","No Acoustic Mask","Visual Mask","Low Predictability","0","aNMvM",55,2,11,"Female"
"2883","210725_c122",15102120,1035.43355353377,897.674327343284,0,"discard_dog","42L","doll","aM","vNM","L","c","aMvNM",2.95818755600538,1.92275400247161,2.0605132286621,1,"15102120_42LaMvNM","42L_aM_vNM.mp4",7,"Version4","https://gorilla.sc/uploads/schedule/15102120?filename=42LaMvNMmp4-119-2.weba","Block1",4,104,"/Users/kechun/Documents/GitHub/PerMaSC/Maskanalysis/questionnaire/child randomizer/data_exp_58325-v9_task-gv44.csv",106,4,9,"Windows 10","Chrome 92.0.4515.131","Version4",11,0,"Female","English","Born and raised in the UK","","Yes sometimes",2,2,"",3,2,"Everything worked well","","","","","","It was quite long","210725_c122","42L",897.674327343284,"Children","aM","vNM","L","Acoustic Mask","No Visual Mask","Low Predictability","0","aMvNM",104,4,11,"Female"
"2923","210725_c122",15102120,1521.50705136355,1289.2013750351,0,"discard_mout","88L","mouse","aM","vNM","L","c","aMvNM",3.90775663468926,2.38624958332571,2.61855525965416,1,"15102120_88LaMvNM","88L_aM_vNM.mp4",7,"Version4","https://gorilla.sc/uploads/schedule/15102120?filename=88LaMvNMmp4-47-2.weba","Block1",1,36,"/Users/kechun/Documents/GitHub/PerMaSC/Maskanalysis/questionnaire/child randomizer/data_exp_58325-v9_task-gv44.csv",46,2,9,"Windows 10","Chrome 92.0.4515.131","Version4",11,0,"Female","English","Born and raised in the UK","","Yes sometimes",2,2,"",3,2,"Everything worked well","","","","","","It was quite long","210725_c122","88L",1289.2013750351,"Children","aM","vNM","L","Acoustic Mask","No Visual Mask","Low Predictability","0","aMvNM",36,2,11,"Female"
"2927","210725_c122",15102120,1195.53154402218,870.899252355575,0,"discard_not","91H","notch","aM","vM","H","c","aMvM",2.91355106799404,1.71801952397186,2.04265181563846,1,"15102120_91HaMvM","91H_aM_vM.mp4",7,"Version4","https://gorilla.sc/uploads/schedule/15102120?filename=91HaMvMmp4-62-2.weba","Block1",1,51,"/Users/kechun/Documents/GitHub/PerMaSC/Maskanalysis/questionnaire/child randomizer/data_exp_58325-v9_task-gv44.csv",46,2,9,"Windows 10","Chrome 92.0.4515.131","Version4",11,0,"Female","English","Born and raised in the UK","","Yes sometimes",2,2,"",3,2,"Everything worked well","","","","","","It was quite long","210725_c122","91H",870.899252355575,"Children","aM","vM","H","Acoustic Mask","Visual Mask","High Predictability","0","aMvM",51,2,11,"Female"
"2937","210725_c130",15367679,822.355810895735,492.688218303114,0,"unsure_braft","103H","raft","aM","vNM","H","c","aMvNM",3.73291970618585,2.91056389529012,3.24023148788274,1,"15367679_103HaMvNM","103H_aM_vNM.mp4",7,"Version4","https://gorilla.sc/uploads/schedule/15367679?filename=103HaMvNMmp4-23-2.weba","Block1",2,14,"/Users/kechun/Documents/GitHub/PerMaSC/Maskanalysis/questionnaire/child randomizer/data_exp_58325-v9_task-gv44.csv",16,1,9,"Windows 10","Chrome 92.0.4515.131","Version4",11,3,"Male","English","Born and raised in the UK","","No",1,1,"",2,1,"Everything worked well","","","","","none","no","210725_c130","103H",492.688218303114,"Children","aM","vNM","H","Acoustic Mask","No Visual Mask","High Predictability","0","aMvNM",14,1,11.25,"Male"
"2939","210725_c130",15367679,605.78699579633,446.98055640248,0,"grim","105H","rim","aNM","vNM","H","c","aNMvNM",2.88763279484675,2.28184579905042,2.44065223844427,1,"15367679_105HaNMvNM","105H_aNM_vNM.mp4",7,"Version4","https://gorilla.sc/uploads/schedule/15367679?filename=105HaNMvNMmp4-58-2.weba","Block1",4,47,"/Users/kechun/Documents/GitHub/PerMaSC/Maskanalysis/questionnaire/child randomizer/data_exp_58325-v9_task-gv44.csv",46,2,9,"Windows 10","Chrome 92.0.4515.131","Version4",11,3,"Male","English","Born and raised in the UK","","No",1,1,"",2,1,"Everything worked well","","","","","none","no","210725_c130","105H",446.98055640248,"Children","aNM","vNM","H","No Acoustic Mask","No Visual Mask","High Predictability","0","aNMvNM",47,2,11.25,"Male"
"2981","210725_c130",15367679,2141.32196230459,1958.47402985509,0,"unsure_clock","21L","clerk","aM","vM","L","c","aMvM",4.30017478068392,2.15885281837933,2.34170075082883,1,"15367679_21LaMvM","21L_aM_vM.mp4",7,"Version4","https://gorilla.sc/uploads/schedule/15367679?filename=21LaMvMmp4-117-2.weba","Block1",3,102,"/Users/kechun/Documents/GitHub/PerMaSC/Maskanalysis/questionnaire/child randomizer/data_exp_58325-v9_task-gv44.csv",106,4,9,"Windows 10","Chrome 92.0.4515.131","Version4",11,3,"Male","English","Born and raised in the UK","","No",1,1,"",2,1,"Everything worked well","","","","","none","no","210725_c130","21L",1958.47402985509,"Children","aM","vM","L","Acoustic Mask","Visual Mask","Low Predictability","0","aMvM",102,4,11.25,"Male"
"2998","210725_c130",15367679,3672.83223641476,3580.5283944234,0,"donnot know","38L","den","aM","vNM","L","c","aMvNM",5.74214819782742,2.06931596141266,2.16161980340402,1,"15367679_38LaMvNM","38L_aM_vNM.mp4",7,"Version4","https://gorilla.sc/uploads/schedule/15367679?filename=38LaMvNMmp4-108-2.weba","Block1",3,93,"/Users/kechun/Documents/GitHub/PerMaSC/Maskanalysis/questionnaire/child randomizer/data_exp_58325-v9_task-gv44.csv",106,4,9,"Windows 10","Chrome 92.0.4515.131","Version4",11,3,"Male","English","Born and raised in the UK","","No",1,1,"",2,1,"Everything worked well","","","","","none","no","210725_c130","38L",3580.5283944234,"Children","aM","vNM","L","Acoustic Mask","No Visual Mask","Low Predictability","0","aMvNM",93,4,11.25,"Male"
"3008","210725_c130",15367679,1830.33789031564,1722.23391443041,0,"don't know","50L","flame","aM","vNM","L","c","aMvNM",4.18099345149992,2.35065556118428,2.45875953706951,1,"15367679_50LaMvNM","50L_aM_vNM.mp4",7,"Version4","https://gorilla.sc/uploads/schedule/15367679?filename=50LaMvNMmp4-89-2.weba","Block1",1,76,"/Users/kechun/Documents/GitHub/PerMaSC/Maskanalysis/questionnaire/child randomizer/data_exp_58325-v9_task-gv44.csv",76,3,9,"Windows 10","Chrome 92.0.4515.131","Version4",11,3,"Male","English","Born and raised in the UK","","No",1,1,"",2,1,"Everything worked well","","","","","none","no","210725_c130","50L",1722.23391443041,"Children","aM","vNM","L","Acoustic Mask","No Visual Mask","Low Predictability","0","aMvNM",76,3,11.25,"Male"
"3043","210725_c130",15367679,3001.79642767119,2769.49075134274,0,"donnot know","88L","mouse","aM","vNM","L","c","aMvNM",5.3880460109969,2.38624958332571,2.61855525965416,1,"15367679_88LaMvNM","88L_aM_vNM.mp4",7,"Version4","https://gorilla.sc/uploads/schedule/15367679?filename=88LaMvNMmp4-88-2.weba","Block1",1,75,"/Users/kechun/Documents/GitHub/PerMaSC/Maskanalysis/questionnaire/child randomizer/data_exp_58325-v9_task-gv44.csv",76,3,9,"Windows 10","Chrome 92.0.4515.131","Version4",11,3,"Male","English","Born and raised in the UK","","No",1,1,"",2,1,"Everything worked well","","","","","none","no","210725_c130","88L",2769.49075134274,"Children","aM","vNM","L","Acoustic Mask","No Visual Mask","Low Predictability","0","aMvNM",75,3,11.25,"Male"
"3110","210725_c135",15571068,258.456688190112,59.7282728895721,0,"unsure_cop?","32L","crop","aNM","vNM","L","c","aNMvNM",2.60299060856755,2.34453392037744,2.54326233567798,1,"15571068_32LaNMvNM","32L_aNM_vNM.mp4",7,"Version5","https://gorilla.sc/uploads/schedule/15571068?filename=32LaNMvNMmp4-125-2.weba","Block1",1,110,"/Users/kechun/Documents/GitHub/PerMaSC/Maskanalysis/questionnaire/child randomizer/data_exp_58325-v9_task-jhw4.csv",106,4,9,"Windows 10","Chrome 92.0.4515.159","Version5",10,0,"Male","English","Born and raised in the UK","","Yes sometimes",3,4,"",2,2,"Everything worked well","","","","","","","210725_c135","32L",59.7282728895721,"Children","aNM","vNM","L","No Acoustic Mask","No Visual Mask","Low Predictability","0","aNMvNM",110,4,10,"Male"
"3113","210725_c135",15571068,357.835455289602,165.090763783152,0,"dark","36L","dart","aM","vNM","L","c","aMvNM",2.34231045219593,1.98447499690633,2.17721968841278,1,"15571068_36LaMvNM","36L_aM_vNM.mp4",7,"Version5","https://gorilla.sc/uploads/schedule/15571068?filename=36LaMvNMmp4-133-2.weba","Block1",1,118,"/Users/kechun/Documents/GitHub/PerMaSC/Maskanalysis/questionnaire/child randomizer/data_exp_58325-v9_task-jhw4.csv",106,4,9,"Windows 10","Chrome 92.0.4515.159","Version5",10,0,"Male","English","Born and raised in the UK","","Yes sometimes",3,4,"",2,2,"Everything worked well","","","","","","","210725_c135","36L",165.090763783152,"Children","aM","vNM","L","Acoustic Mask","No Visual Mask","Low Predictability","0","aMvNM",118,4,10,"Male"
"3160","210725_c135",15571068,1080.89456600373,956.267482670396,0,"unsure_lame - there seems to be a burst, but I cannot hear it","8L","blame","aM","vNM","L","c","aMvNM",2.85018510370367,1.76929053769994,1.89391762103327,1,"15571068_8LaMvNM","8L_aM_vNM.mp4",7,"Version5","https://gorilla.sc/uploads/schedule/15571068?filename=8LaMvNMmp4-55-2.weba","Block1",3,44,"/Users/kechun/Documents/GitHub/PerMaSC/Maskanalysis/questionnaire/child randomizer/data_exp_58325-v9_task-jhw4.csv",46,2,9,"Windows 10","Chrome 92.0.4515.159","Version5",10,0,"Male","English","Born and raised in the UK","","Yes sometimes",3,4,"",2,2,"Everything worked well","","","","","","","210725_c135","8L",956.267482670396,"Children","aM","vNM","L","Acoustic Mask","No Visual Mask","Low Predictability","0","aMvNM",44,2,10,"Male"
"3163","210725_c135",15571068,2795.35645246926,2612.54866172396,0,"discard_I donot know","93L","pad","aNM","vM","L","c","aNMvM",5.16910397499771,2.37374752252845,2.55655531327375,1,"15571068_93LaNMvM","93L_aNM_vM.mp4",7,"Version5","https://gorilla.sc/uploads/schedule/15571068?filename=93LaNMvMmp4-102-2.weba","Block1",2,89,"/Users/kechun/Documents/GitHub/PerMaSC/Maskanalysis/questionnaire/child randomizer/data_exp_58325-v9_task-jhw4.csv",76,3,9,"Windows 10","Chrome 92.0.4515.159","Version5",10,0,"Male","English","Born and raised in the UK","","Yes sometimes",3,4,"",2,2,"Everything worked well","","","","","","","210725_c135","93L",2612.54866172396,"Children","aNM","vM","L","No Acoustic Mask","Visual Mask","Low Predictability","0","aNMvM",89,3,10,"Male"
"3175","210725_c76",14745223,1549.11326440402,1502.51193864643,0,"brow","108L","row","aNM","vM","L","c","aNMvM",3.95320184199819,2.40408857759417,2.45068990335176,1,"14745223_108LaNMvM","108L_aNM_vM.mp4",7,"Version2","https://gorilla.sc/uploads/schedule/14745223?filename=audioFile-120-2.weba","Block1",3,105,"/Users/kechun/Documents/GitHub/PerMaSC/Maskanalysis/questionnaire/child randomizer/data_exp_58325-v9_task-tucf.csv",106,4,9,"Mac OS 10.13.6","Chrome 91.0.4472.101","Version2",10,5,"Female","English","Born and raised in the UK","","No",2,2,"",2,2,"Everything worked well","","","","","","","210725_c76","108L",1502.51193864643,"Children","aNM","vM","L","No Acoustic Mask","Visual Mask","Low Predictability","0","aNMvM",105,4,10.4166666666667,"Female"
"3204","210725_c76",14745223,1000.64454728542,746.171998265907,0,"trup?","138L","truck","aNM","vM","L","c","aNMvM",2.96399374643315,1.96334919914773,2.21782174816724,1,"14745223_138LaNMvM","138L_aNM_vM.mp4",7,"Version2","https://gorilla.sc/uploads/schedule/14745223?filename=audioFile-47-2.weba","Block1",2,36,"/Users/kechun/Documents/GitHub/PerMaSC/Maskanalysis/questionnaire/child randomizer/data_exp_58325-v9_task-tucf.csv",46,2,9,"Mac OS 10.13.6","Chrome 91.0.4472.101","Version2",10,5,"Female","English","Born and raised in the UK","","No",2,2,"",2,2,"Everything worked well","","","","","","","210725_c76","138L",746.171998265907,"Children","aNM","vM","L","No Acoustic Mask","Visual Mask","Low Predictability","0","aNMvM",36,2,10.4166666666667,"Female"
"3213","210725_c76",14745223,2114.97996296809,1932.13203051859,0,"club","21L","clerk","aM","vNM","L","c","aMvNM",4.27383278134742,2.15885281837933,2.34170075082883,1,"14745223_21LaMvNM","21L_aM_vNM.mp4",7,"Version2","https://gorilla.sc/uploads/schedule/14745223?filename=audioFile-125-2.weba","Block1",3,110,"/Users/kechun/Documents/GitHub/PerMaSC/Maskanalysis/questionnaire/child randomizer/data_exp_58325-v9_task-tucf.csv",106,4,9,"Mac OS 10.13.6","Chrome 91.0.4472.101","Version2",10,5,"Female","English","Born and raised in the UK","","No",2,2,"",2,2,"Everything worked well","","","","","","","210725_c76","21L",1932.13203051859,"Children","aM","vNM","L","Acoustic Mask","No Visual Mask","Low Predictability","0","aMvNM",110,4,10.4166666666667,"Female"
"3224","210725_c76",14745223,767.848465545367,567.534576656466,0,"unsure_sounds like quib","31L","crib","aNM","vNM","L","c","aNMvNM",3.15164776008368,2.38379929453831,2.58411318342721,1,"14745223_31LaNMvNM","31L_aNM_vNM.mp4",7,"Version2","https://gorilla.sc/uploads/schedule/14745223?filename=audioFile-100-2.weba","Block1",4,87,"/Users/kechun/Documents/GitHub/PerMaSC/Maskanalysis/questionnaire/child randomizer/data_exp_58325-v9_task-tucf.csv",76,3,9,"Mac OS 10.13.6","Chrome 91.0.4472.101","Version2",10,5,"Female","English","Born and raised in the UK","","No",2,2,"",2,2,"Everything worked well","","","","","","","210725_c76","31L",567.534576656466,"Children","aNM","vNM","L","No Acoustic Mask","No Visual Mask","Low Predictability","0","aNMvNM",87,3,10.4166666666667,"Female"
"3240","210725_c76",14745223,1896.42598150786,1805.7644786588,0,"blame","50H","flame","aNM","vM","H","c","aNMvM",3.98226337869212,2.08583739718426,2.17649890003332,1,"14745223_50HaNMvM","50H_aNM_vM.mp4",7,"Version2","https://gorilla.sc/uploads/schedule/14745223?filename=audioFile-38-2.weba","Block1",1,29,"/Users/kechun/Documents/GitHub/PerMaSC/Maskanalysis/questionnaire/child randomizer/data_exp_58325-v9_task-tucf.csv",16,1,9,"Mac OS 10.13.6","Chrome 91.0.4472.101","Version2",10,5,"Female","English","Born and raised in the UK","","No",2,2,"",2,2,"Everything worked well","","","","","","","210725_c76","50H",1805.7644786588,"Children","aNM","vM","H","No Acoustic Mask","Visual Mask","High Predictability","0","aNMvM",29,1,10.4166666666667,"Female"
"3264","210725_c76",14745223,1352.65556732622,1134.53203536483,0,"blap","78H","lap","aM","vNM","H","c","aMvNM",3.63306228098969,2.28040671366347,2.49853024562486,1,"14745223_78HaMvNM","78H_aM_vNM.mp4",7,"Version2","https://gorilla.sc/uploads/schedule/14745223?filename=audioFile-56-2.weba","Block1",2,45,"/Users/kechun/Documents/GitHub/PerMaSC/Maskanalysis/questionnaire/child randomizer/data_exp_58325-v9_task-tucf.csv",46,2,9,"Mac OS 10.13.6","Chrome 91.0.4472.101","Version2",10,5,"Female","English","Born and raised in the UK","","No",2,2,"",2,2,"Everything worked well","","","","","","","210725_c76","78H",1134.53203536483,"Children","aM","vNM","H","Acoustic Mask","No Visual Mask","High Predictability","0","aMvNM",45,2,10.4166666666667,"Female"
"3307","210725_c81",14745923,1672.18987404784,1487.64011337142,0,"discard_I think the child said sth before","123H","sport","aM","vNM","H","c","aMvNM",3.74009975159391,2.06790987754607,2.25245963822249,1,"14745923_123HaMvNM","123H_aM_vNM.mp4",7,"Version8","https://gorilla.sc/uploads/schedule/14745923?filename=audioFile-122-2.weba","Block1",1,107,"/Users/kechun/Documents/GitHub/PerMaSC/Maskanalysis/questionnaire/child randomizer/data_exp_58325-v9_task-u5lv.csv",106,4,9,"Mac OS 10.13.6","Chrome 91.0.4472.101","Version8",11,11,"Male","English","Born and raised in the UK","","No",2,1,"",2,2,"Everything worked well","","","","","","","210725_c81","123H",1487.64011337142,"Children","aM","vNM","H","Acoustic Mask","No Visual Mask","High Predictability","0","aMvNM",107,4,11.9166666666667,"Male"
"3327","210725_c81",14745923,1612.79506386684,1380.62829573914,0,"shut","19L","chat","aM","vM","L","c","aMvM",3.94336568841386,2.33057062454702,2.56273739267472,1,"14745923_19LaMvM","19L_aM_vM.mp4",7,"Version8","https://gorilla.sc/uploads/schedule/14745923?filename=audioFile-123-2.weba","Block1",1,108,"/Users/kechun/Documents/GitHub/PerMaSC/Maskanalysis/questionnaire/child randomizer/data_exp_58325-v9_task-u5lv.csv",106,4,9,"Mac OS 10.13.6","Chrome 91.0.4472.101","Version8",11,11,"Male","English","Born and raised in the UK","","No",2,1,"",2,2,"Everything worked well","","","","","","","210725_c81","19L",1380.62829573914,"Children","aM","vM","L","Acoustic Mask","Visual Mask","Low Predictability","0","aMvM",108,4,11.9166666666667,"Male"
"3362","210725_c81",14745923,1649.33252735149,1504.86437258959,0,"gream? incomplete recording","5H","beam","aM","vNM","H","c","aMvNM",3.93555298640919,2.2862204590577,2.4306886138196,1,"14745923_5HaMvNM","5H_aM_vNM.mp4",7,"Version8","https://gorilla.sc/uploads/schedule/14745923?filename=audioFile-48-2.weba","Block1",4,37,"/Users/kechun/Documents/GitHub/PerMaSC/Maskanalysis/questionnaire/child randomizer/data_exp_58325-v9_task-u5lv.csv",46,2,9,"Mac OS 10.13.6","Chrome 91.0.4472.101","Version8",11,11,"Male","English","Born and raised in the UK","","No",2,1,"",2,2,"Everything worked well","","","","","","","210725_c81","5H",1504.86437258959,"Children","aM","vNM","H","Acoustic Mask","No Visual Mask","High Predictability","0","aMvNM",37,2,11.9166666666667,"Male"
"3363","210725_c81",14745923,1436.70416931866,1299.8426241798,0,"unsure_grim?","60L","grin","aM","vM","L","c","aMvM",3.68983982121773,2.25313565189907,2.38999719703793,1,"14745923_60LaMvM","60L_aM_vM.mp4",7,"Version8","https://gorilla.sc/uploads/schedule/14745923?filename=audioFile-132-2.weba","Block1",1,117,"/Users/kechun/Documents/GitHub/PerMaSC/Maskanalysis/questionnaire/child randomizer/data_exp_58325-v9_task-u5lv.csv",106,4,9,"Mac OS 10.13.6","Chrome 91.0.4472.101","Version8",11,11,"Male","English","Born and raised in the UK","","No",2,1,"",2,2,"Everything worked well","","","","","","","210725_c81","60L",1299.8426241798,"Children","aM","vM","L","Acoustic Mask","Visual Mask","Low Predictability","0","aMvM",117,4,11.9166666666667,"Male"
"3367","210725_c81",14745923,1598.5123286955,1431.37065551167,0,"hand","64L","hen","aM","vM","L","c","aMvM",3.72535642698193,2.12684409828643,2.29398577147026,1,"14745923_64LaMvM","64L_aM_vM.mp4",7,"Version8","https://gorilla.sc/uploads/schedule/14745923?filename=audioFile-91-2.weba","Block1",2,78,"/Users/kechun/Documents/GitHub/PerMaSC/Maskanalysis/questionnaire/child randomizer/data_exp_58325-v9_task-u5lv.csv",76,3,9,"Mac OS 10.13.6","Chrome 91.0.4472.101","Version8",11,11,"Male","English","Born and raised in the UK","","No",2,1,"",2,2,"Everything worked well","","","","","","","210725_c81","64L",1431.37065551167,"Children","aM","vM","L","Acoustic Mask","Visual Mask","Low Predictability","0","aMvM",78,3,11.9166666666667,"Male"
"3375","210725_c81",14745923,1412.50808419971,1142.17968784112,0,"unsure_geese?","72L","juice","aM","vM","L","c","aMvM",3.56685380948238,2.15434572528267,2.42467412164126,1,"14745923_72LaMvM","72L_aM_vM.mp4",7,"Version8","https://gorilla.sc/uploads/schedule/14745923?filename=audioFile-60-2.weba","Block1",4,49,"/Users/kechun/Documents/GitHub/PerMaSC/Maskanalysis/questionnaire/child randomizer/data_exp_58325-v9_task-u5lv.csv",46,2,9,"Mac OS 10.13.6","Chrome 91.0.4472.101","Version8",11,11,"Male","English","Born and raised in the UK","","No",2,1,"",2,2,"Everything worked well","","","","","","","210725_c81","72L",1142.17968784112,"Children","aM","vM","L","Acoustic Mask","Visual Mask","Low Predictability","0","aMvM",49,2,11.9166666666667,"Male"
"3398","210725_c81",14745923,2291.89890104255,2164.64783007979,0,"","96L","pile","aNM","vM","L","c","aNMvM",4.24610473590798,1.95420583486543,2.08145690582819,1,"14745923_96LaNMvM","96L_aNM_vM.mp4",7,"Version8","https://gorilla.sc/uploads/schedule/14745923?filename=audioFile-87-2.weba","Block1",2,74,"/Users/kechun/Documents/GitHub/PerMaSC/Maskanalysis/questionnaire/child randomizer/data_exp_58325-v9_task-u5lv.csv",76,3,9,"Mac OS 10.13.6","Chrome 91.0.4472.101","Version8",11,11,"Male","English","Born and raised in the UK","","No",2,1,"",2,2,"Everything worked well","","","","","","","210725_c81","96L",2164.64783007979,"Children","aNM","vM","L","No Acoustic Mask","Visual Mask","Low Predictability","0","aNMvM",74,3,11.9166666666667,"Male"
"3434","210725_c84",14993977,1445.33783548312,1169.30932671121,0,"track","138L","truck","aM","vM","L","c","aMvM",3.39448907699844,1.94915124151532,2.22517975028723,1,"14993977_138LaMvM","138L_aM_vM.mp4",7,"Version1","https://gorilla.sc/uploads/schedule/14993977?filename=138LaMvMmp4-58-2.weba","Block1",2,47,"/Users/kechun/Documents/GitHub/PerMaSC/Maskanalysis/questionnaire/child randomizer/data_exp_58325-v9_task-l3g6.csv",46,2,9,"Mac OS 10.15.7","Chrome 92.0.4515.131","Version1",10,9,"Female","English","Born and raised in the UK","","Yes sometimes",3,2,"",2,2,"Everything worked well","","","","","","","210725_c84","138L",1169.30932671121,"Children","aM","vM","L","Acoustic Mask","Visual Mask","Low Predictability","0","aMvM",47,2,10.75,"Female"
"3531","210725_c86",14742950,6124.42572273266,5968.9994749608,0,"discard_said don't know","118L","sling","aM","vM","L","c","aMvM",8.46069628980046,2.3362705670678,2.49169681483966,1,"14742950_118LaMvM","118L_aM_vM.mp4",7,"Version7","https://gorilla.sc/uploads/schedule/14742950?filename=audioFile-30-2.weba","Block1",3,21,"/Users/kechun/Documents/GitHub/PerMaSC/Maskanalysis/questionnaire/child randomizer/data_exp_58325-v9_task-73fk.csv",16,1,9,"Chromium OS 13904.97.0","Chrome 91.0.4472.167","Version7",11,0,"Female","English","Born and raised in the UK","","Yes sometimes",2,3,"",2,3,"Everything worked well","","","","","","","210725_c86","118L",5968.9994749608,"Children","aM","vM","L","Acoustic Mask","Visual Mask","Low Predictability","0","aMvM",21,1,11,"Female"
"3534","210725_c86",14742950,4043.17303554998,3821.35014822606,0,"discard_said don't know","121L","spool","aNM","vM","L","c","aNMvM",6.13628728873263,2.09311425318265,2.31493714050657,1,"14742950_121LaNMvM","121L_aNM_vM.mp4",7,"Version7","https://gorilla.sc/uploads/schedule/14742950?filename=audioFile-38-2.weba","Block1",3,29,"/Users/kechun/Documents/GitHub/PerMaSC/Maskanalysis/questionnaire/child randomizer/data_exp_58325-v9_task-73fk.csv",16,1,9,"Chromium OS 13904.97.0","Chrome 91.0.4472.167","Version7",11,0,"Female","English","Born and raised in the UK","","Yes sometimes",2,3,"",2,3,"Everything worked well","","","","","","","210725_c86","121L",3821.35014822606,"Children","aNM","vM","L","No Acoustic Mask","Visual Mask","Low Predictability","0","aNMvM",29,1,11,"Female"
"3535","210725_c86",14742950,1691.17378570682,1532.52448015119,0,"discard_said don't know","122L","spoon","aM","vM","L","c","aMvM",3.91533109425721,2.22415730855039,2.38280661410602,1,"14742950_122LaMvM","122L_aM_vM.mp4",7,"Version7","https://gorilla.sc/uploads/schedule/14742950?filename=audioFile-121-2.weba","Block1",4,106,"/Users/kechun/Documents/GitHub/PerMaSC/Maskanalysis/questionnaire/child randomizer/data_exp_58325-v9_task-73fk.csv",106,4,9,"Chromium OS 13904.97.0","Chrome 91.0.4472.167","Version7",11,0,"Female","English","Born and raised in the UK","","Yes sometimes",2,3,"",2,3,"Everything worked well","","","","","","","210725_c86","122L",1532.52448015119,"Children","aM","vM","L","Acoustic Mask","Visual Mask","Low Predictability","0","aMvM",106,4,11,"Female"
"3565","210725_c86",14742950,5020.99185493199,4885.03768826533,0,"discard_said don't know","27L","coin","aM","vNM","L","c","aMvNM",7.37352234218406,2.35253048725207,2.48848465391873,1,"14742950_27LaMvNM","27L_aM_vNM.mp4",7,"Version7","https://gorilla.sc/uploads/schedule/14742950?filename=audioFile-18-2.weba","Block1",3,9,"/Users/kechun/Documents/GitHub/PerMaSC/Maskanalysis/questionnaire/child randomizer/data_exp_58325-v9_task-73fk.csv",16,1,9,"Chromium OS 13904.97.0","Chrome 91.0.4472.167","Version7",11,0,"Female","English","Born and raised in the UK","","Yes sometimes",2,3,"",2,3,"Everything worked well","","","","","","","210725_c86","27L",4885.03768826533,"Children","aM","vNM","L","Acoustic Mask","No Visual Mask","Low Predictability","0","aMvNM",9,1,11,"Female"
"3588","210725_c86",14742950,4887.36862825871,4735.46933390386,0,"discard_girl","58L","goal","aNM","vNM","L","c","aNMvNM",6.84862218771033,1.96125355945162,2.11315285380647,1,"14742950_58LaNMvNM","58L_aNM_vNM.mp4",7,"Version7","https://gorilla.sc/uploads/schedule/14742950?filename=audioFile-47-2.weba","Block1",2,36,"/Users/kechun/Documents/GitHub/PerMaSC/Maskanalysis/questionnaire/child randomizer/data_exp_58325-v9_task-73fk.csv",46,2,9,"Chromium OS 13904.97.0","Chrome 91.0.4472.167","Version7",11,0,"Female","English","Born and raised in the UK","","Yes sometimes",2,3,"",2,3,"Everything worked well","","","","","","","210725_c86","58L",4735.46933390386,"Children","aNM","vNM","L","No Acoustic Mask","No Visual Mask","Low Predictability","0","aNMvNM",36,2,11,"Female"
"3595","210725_c86",14742950,2489.39616759111,2322.25449440728,0,"discard_hand","64L","hen","aM","vNM","L","c","aMvNM",4.61624026587754,2.12684409828643,2.29398577147026,1,"14742950_64LaMvNM","64L_aM_vNM.mp4",7,"Version7","https://gorilla.sc/uploads/schedule/14742950?filename=audioFile-60-2.weba","Block1",2,49,"/Users/kechun/Documents/GitHub/PerMaSC/Maskanalysis/questionnaire/child randomizer/data_exp_58325-v9_task-73fk.csv",46,2,9,"Chromium OS 13904.97.0","Chrome 91.0.4472.167","Version7",11,0,"Female","English","Born and raised in the UK","","Yes sometimes",2,3,"",2,3,"Everything worked well","","","","","","","210725_c86","64L",2322.25449440728,"Children","aM","vNM","L","Acoustic Mask","No Visual Mask","Low Predictability","0","aMvNM",49,2,11,"Female"
"3632","210725_c94",14889970,1538.75198249006,1394.50049863451,0,"room? vowel in TIN and CLIFF are fronter","105L","rim","aM","vM","L","c","aMvM",4.07756831153808,2.53881632904802,2.68306781290357,1,"14889970_105LaMvM","105L_aM_vM.mp4",7,"Version3","https://gorilla.sc/uploads/schedule/14889970?filename=105LaMvMmp4-70-2.weba","Block1",4,59,"/Users/kechun/Documents/GitHub/PerMaSC/Maskanalysis/questionnaire/child randomizer/data_exp_58325-v9_task-f475.csv",46,2,9,"Mac OS 10.14.6","Chrome 92.0.4515.107","Version3",8,5,"Female","English","Born and raised in the UK","","No",2,1,"",2,2,"Everything worked well","","","","","","","210725_c94","105L",1394.50049863451,"Children","aM","vM","L","Acoustic Mask","Visual Mask","Low Predictability","0","aMvM",59,2,8.41666666666667,"Female"
"3680","210725_c94",14889970,1661.8902306222,1318.54896078091,0,"pops","28L","cops","aM","vM","L","c","aMvM",4.04421760384344,2.38232737322124,2.72566864306253,1,"14889970_28LaMvM","28L_aM_vM.mp4",7,"Version3","https://gorilla.sc/uploads/schedule/14889970?filename=28LaMvMmp4-53-2.weba","Block1",4,42,"/Users/kechun/Documents/GitHub/PerMaSC/Maskanalysis/questionnaire/child randomizer/data_exp_58325-v9_task-f475.csv",46,2,9,"Mac OS 10.14.6","Chrome 92.0.4515.107","Version3",8,5,"Female","English","Born and raised in the UK","","No",2,1,"",2,2,"Everything worked well","","","","","","","210725_c94","28L",1318.54896078091,"Children","aM","vM","L","Acoustic Mask","Visual Mask","Low Predictability","0","aMvM",42,2,8.41666666666667,"Female"
"3708","210725_c94",14889970,1560.3095944833,1436.34778892775,0,"groan","60H","grin","aM","vNM","H","c","aMvNM",3.91259618350475,2.35228658902145,2.476248394577,1,"14889970_60HaMvNM","60H_aM_vNM.mp4",7,"Version3","https://gorilla.sc/uploads/schedule/14889970?filename=60HaMvNMmp4-36-2.weba","Block1",1,27,"/Users/kechun/Documents/GitHub/PerMaSC/Maskanalysis/questionnaire/child randomizer/data_exp_58325-v9_task-f475.csv",16,1,9,"Mac OS 10.14.6","Chrome 92.0.4515.107","Version3",8,5,"Female","English","Born and raised in the UK","","No",2,1,"",2,2,"Everything worked well","","","","","","","210725_c94","60H",1436.34778892775,"Children","aM","vNM","H","Acoustic Mask","No Visual Mask","High Predictability","0","aMvNM",27,1,8.41666666666667,"Female"
"3721","210725_c94",14889970,1613.4312768582,1386.55349505769,0,"jank","73L","junk","aM","vM","L","c","aMvM",3.75226677654678,2.13883549968858,2.36571328148909,1,"14889970_73LaMvM","73L_aM_vM.mp4",7,"Version3","https://gorilla.sc/uploads/schedule/14889970?filename=73LaMvMmp4-37-2.weba","Block1",1,28,"/Users/kechun/Documents/GitHub/PerMaSC/Maskanalysis/questionnaire/child randomizer/data_exp_58325-v9_task-f475.csv",16,1,9,"Mac OS 10.14.6","Chrome 92.0.4515.107","Version3",8,5,"Female","English","Born and raised in the UK","","No",2,1,"",2,2,"Everything worked well","","","","","","","210725_c94","73L",1386.55349505769,"Children","aM","vM","L","Acoustic Mask","Visual Mask","Low Predictability","0","aMvM",28,1,8.41666666666667,"Female"
"3743","210725_c94",14889970,1673.2437446243,1534.10469862126,0,"pearl","96L","pile","aM","vM","L","c","aMvM",3.78754879301937,2.11430504839507,2.25344409439811,1,"14889970_96LaMvM","96L_aM_vM.mp4",7,"Version3","https://gorilla.sc/uploads/schedule/14889970?filename=96LaMvMmp4-97-2.weba","Block1",2,84,"/Users/kechun/Documents/GitHub/PerMaSC/Maskanalysis/questionnaire/child randomizer/data_exp_58325-v9_task-f475.csv",76,3,9,"Mac OS 10.14.6","Chrome 92.0.4515.107","Version3",8,5,"Female","English","Born and raised in the UK","","No",2,1,"",2,2,"Everything worked well","","","","","","","210725_c94","96L",1534.10469862126,"Children","aM","vM","L","Acoustic Mask","Visual Mask","Low Predictability","0","aMvM",84,3,8.41666666666667,"Female"
"3802","210823_c177",15326180,360.24034806862,261.05610893819,0,"Van?","2L","barn","aM","vM","L","c","aMvM",2.21549890023141,1.85525855216279,1.95444279129322,1,"15326180_2LaMvM","2L_aM_vM.mp4",7,"Version5","https://gorilla.sc/uploads/schedule/15326180?filename=2LaMvMmp4-66-2.weba","Block1",1,55,"/Users/kechun/Documents/GitHub/PerMaSC/Maskanalysis/questionnaire/child randomizer/data_exp_58325-v9_task-jhw4.csv",46,2,9,"Windows 10","Chrome 92.0.4515.159","Version5",11,11,"Male","English and another language (bilingual)","Raised in the UK from this age (please specify):","5 Months","Yes sometimes",2,4,"Not very problamatic",3,1,"Everything worked well","","","","","No","No","210823_c177","2L",261.05610893819,"Children","aM","vM","L","Acoustic Mask","Visual Mask","Low Predictability","0","aMvM",55,2,11.9166666666667,"Male"
"3816","210823_c177",15326180,2071.7766222804,1822.60730409857,0,"I don't know","43L","dove","aM","vM","L","c","aMvM",4.05736169686466,1.98558507458426,2.23475439276609,1,"15326180_43LaMvM","43L_aM_vM.mp4",7,"Version5","https://gorilla.sc/uploads/schedule/15326180?filename=43LaMvMmp4-129-2.weba","Block1",2,114,"/Users/kechun/Documents/GitHub/PerMaSC/Maskanalysis/questionnaire/child randomizer/data_exp_58325-v9_task-jhw4.csv",106,4,9,"Windows 10","Chrome 92.0.4515.159","Version5",11,11,"Male","English and another language (bilingual)","Raised in the UK from this age (please specify):","5 Months","Yes sometimes",2,4,"Not very problamatic",3,1,"Everything worked well","","","","","No","No","210823_c177","43L",1822.60730409857,"Children","aM","vM","L","Acoustic Mask","Visual Mask","Low Predictability","0","aMvM",114,4,11.9166666666667,"Male"
"3824","210823_c177",15326180,265.904212905445,228.513365386815,0,"unsure_clue?","57H","glue","aNM","vNM","H","c","aNMvNM",2.50718406421097,2.24127985130553,2.27867069882416,1,"15326180_57HaNMvNM","57H_aNM_vNM.mp4",7,"Version5","https://gorilla.sc/uploads/schedule/15326180?filename=57HaNMvNMmp4-61-2.weba","Block1",1,50,"/Users/kechun/Documents/GitHub/PerMaSC/Maskanalysis/questionnaire/child randomizer/data_exp_58325-v9_task-jhw4.csv",46,2,9,"Windows 10","Chrome 92.0.4515.159","Version5",11,11,"Male","English and another language (bilingual)","Raised in the UK from this age (please specify):","5 Months","Yes sometimes",2,4,"Not very problamatic",3,1,"Everything worked well","","","","","No","No","210823_c177","57H",228.513365386815,"Children","aNM","vNM","H","No Acoustic Mask","No Visual Mask","High Predictability","0","aNMvNM",50,2,11.9166666666667,"Male"
"3852","210823_c177",15326180,612.610684262078,334.519315214349,0,"nut?","85L","mat","aM","vM","L","c","aMvM",2.59177381101742,1.97916312675534,2.25725449580307,1,"15326180_85LaMvM","85L_aM_vM.mp4",7,"Version5","https://gorilla.sc/uploads/schedule/15326180?filename=85LaMvMmp4-112-2.weba","Block1",2,97,"/Users/kechun/Documents/GitHub/PerMaSC/Maskanalysis/questionnaire/child randomizer/data_exp_58325-v9_task-jhw4.csv",106,4,9,"Windows 10","Chrome 92.0.4515.159","Version5",11,11,"Male","English and another language (bilingual)","Raised in the UK from this age (please specify):","5 Months","Yes sometimes",2,4,"Not very problamatic",3,1,"Everything worked well","","","","","No","No","210823_c177","85L",334.519315214349,"Children","aM","vM","L","Acoustic Mask","Visual Mask","Low Predictability","0","aMvM",97,4,11.9166666666667,"Male"
"3867","210823_c177",15326180,814.83993433805,532.94917044916,0,"cannot figure out what she said","9H","blast","aNM","vNM","H","c","aNMvNM",3.04931943984451,2.23447950550646,2.51637026939535,1,"15326180_9HaNMvNM","9H_aNM_vNM.mp4",7,"Version5","https://gorilla.sc/uploads/schedule/15326180?filename=9HaNMvNMmp4-99-2.weba","Block1",4,86,"/Users/kechun/Documents/GitHub/PerMaSC/Maskanalysis/questionnaire/child randomizer/data_exp_58325-v9_task-jhw4.csv",76,3,9,"Windows 10","Chrome 92.0.4515.159","Version5",11,11,"Male","English and another language (bilingual)","Raised in the UK from this age (please specify):","5 Months","Yes sometimes",2,4,"Not very problamatic",3,1,"Everything worked well","","","","","No","No","210823_c177","9H",532.94917044916,"Children","aNM","vNM","H","No Acoustic Mask","No Visual Mask","High Predictability","0","aNMvNM",86,3,11.9166666666667,"Male"
"3926","210823_c179",15327645,600.993970639478,390.042365350268,0,"discard_debt","37L","deck","aM","vNM","L","c","aMvNM",2.77054739844755,2.16955342780807,2.38050503309728,1,"15327645_37LaMvNM","37L_aM_vNM.mp4",7,"Version1","https://gorilla.sc/uploads/schedule/15327645?filename=37LaMvNMmp4-52-2.weba","Block1",2,41,"/Users/kechun/Documents/GitHub/PerMaSC/Maskanalysis/questionnaire/child randomizer/data_exp_58325-v9_task-l3g6.csv",46,2,9,"Mac OS 10.15","Firefox 91.0","Version1",11,11,"Female","English and another language (bilingual)","Raised in the UK from this age (please specify):","5","I don't know",3,3,"",3,1,"","There were issues with the videos","","","","The videos did not load until we refreshed the page. This happened 4 times.","it was fun.","210823_c179","37L",390.042365350268,"Children","aM","vNM","L","Acoustic Mask","No Visual Mask","Low Predictability","0","aMvNM",41,2,11.9166666666667,"Female"
"3931","210823_c179",15327645,-193.998048969749,-257.512185874559,0,"unsure_die","41L","dive","aM","vNM","L","c","aMvNM",2.37337268503981,2.56737073400956,2.63088487091437,1,"15327645_41LaMvNM","41L_aM_vNM.mp4",7,"Version1","https://gorilla.sc/uploads/schedule/15327645?filename=41LaMvNMmp4-128-2.weba","Block1",3,113,"/Users/kechun/Documents/GitHub/PerMaSC/Maskanalysis/questionnaire/child randomizer/data_exp_58325-v9_task-l3g6.csv",106,4,9,"Mac OS 10.15","Firefox 91.0","Version1",11,11,"Female","English and another language (bilingual)","Raised in the UK from this age (please specify):","5","I don't know",3,3,"",3,1,"","There were issues with the videos","","","","The videos did not load until we refreshed the page. This happened 4 times.","it was fun.","210823_c179","41L",-257.512185874559,"Children","aM","vNM","L","Acoustic Mask","No Visual Mask","Low Predictability","0","aMvNM",113,4,11.9166666666667,"Female"
"3945","210823_c179",15327645,676.714037226622,554.521079946962,0,"unsure_grinned","60L","grin","aNM","vM","L","c","aNMvM",2.97635630846983,2.29964227124321,2.42183522852287,1,"15327645_60LaNMvM","60L_aNM_vM.mp4",7,"Version1","https://gorilla.sc/uploads/schedule/15327645?filename=60LaNMvMmp4-23-2.weba","Block1",1,14,"/Users/kechun/Documents/GitHub/PerMaSC/Maskanalysis/questionnaire/child randomizer/data_exp_58325-v9_task-l3g6.csv",16,1,9,"Mac OS 10.15","Firefox 91.0","Version1",11,11,"Female","English and another language (bilingual)","Raised in the UK from this age (please specify):","5","I don't know",3,3,"",3,1,"","There were issues with the videos","","","","The videos did not load until we refreshed the page. This happened 4 times.","it was fun.","210823_c179","60L",554.521079946962,"Children","aNM","vM","L","No Acoustic Mask","Visual Mask","Low Predictability","0","aNMvM",14,1,11.9166666666667,"Female"
"3953","210823_c179",15327645,233.385050331717,-52.351112993283,0,"unsure_hurt","69H","host","aM","vNM","H","c","aMvNM",2.6408605727371,2.40747552240538,2.69321168573038,1,"15327645_69HaMvNM","69H_aM_vNM.mp4",7,"Version1","https://gorilla.sc/uploads/schedule/15327645?filename=69HaMvNMmp4-81-2.weba","Block1",4,68,"/Users/kechun/Documents/GitHub/PerMaSC/Maskanalysis/questionnaire/child randomizer/data_exp_58325-v9_task-l3g6.csv",76,3,9,"Mac OS 10.15","Firefox 91.0","Version1",11,11,"Female","English and another language (bilingual)","Raised in the UK from this age (please specify):","5","I don't know",3,3,"",3,1,"","There were issues with the videos","","","","The videos did not load until we refreshed the page. This happened 4 times.","it was fun.","210823_c179","69H",-52.351112993283,"Children","aM","vNM","H","Acoustic Mask","No Visual Mask","High Predictability","0","aMvNM",68,3,11.9166666666667,"Female"
"3969","210823_c179",15327645,396.137553968689,184.269622421029,0,"discard_mock","87L","mop","aM","vNM","L","c","aMvNM",2.50642402832665,2.11028647435796,2.32215440590562,1,"15327645_87LaMvNM","87L_aM_vNM.mp4",7,"Version1","https://gorilla.sc/uploads/schedule/15327645?filename=87LaMvNMmp4-84-2.weba","Block1",4,71,"/Users/kechun/Documents/GitHub/PerMaSC/Maskanalysis/questionnaire/child randomizer/data_exp_58325-v9_task-l3g6.csv",76,3,9,"Mac OS 10.15","Firefox 91.0","Version1",11,11,"Female","English and another language (bilingual)","Raised in the UK from this age (please specify):","5","I don't know",3,3,"",3,1,"","There were issues with the videos","","","","The videos did not load until we refreshed the page. This happened 4 times.","it was fun.","210823_c179","87L",184.269622421029,"Children","aM","vNM","L","Acoustic Mask","No Visual Mask","Low Predictability","0","aMvNM",71,3,11.9166666666667,"Female"
"3979","210823_c179",15327645,670.068224340124,528.906098271764,0,"discard_time","98L","pine","aM","vM","L","c","aMvM",2.5868414621421,1.91677323780198,2.05793536387034,1,"15327645_98LaMvM","98L_aM_vM.mp4",7,"Version1","https://gorilla.sc/uploads/schedule/15327645?filename=98LaMvMmp4-24-2.weba","Block1",1,15,"/Users/kechun/Documents/GitHub/PerMaSC/Maskanalysis/questionnaire/child randomizer/data_exp_58325-v9_task-l3g6.csv",16,1,9,"Mac OS 10.15","Firefox 91.0","Version1",11,11,"Female","English and another language (bilingual)","Raised in the UK from this age (please specify):","5","I don't know",3,3,"",3,1,"","There were issues with the videos","","","","The videos did not load until we refreshed the page. This happened 4 times.","it was fun.","210823_c179","98L",528.906098271764,"Children","aM","vM","L","Acoustic Mask","Visual Mask","Low Predictability","0","aMvM",15,1,11.9166666666667,"Female"
"3980","210823_c179",15327645,369.44458982458,99.6240342689698,0,"unsure_tot?","99L","plot","aNM","vM","L","c","aNMvM",1.99346147508021,1.62401688525563,1.89383744081124,1,"15327645_99LaNMvM","99L_aNM_vM.mp4",7,"Version1","https://gorilla.sc/uploads/schedule/15327645?filename=99LaNMvMmp4-59-2.weba","Block1",2,48,"/Users/kechun/Documents/GitHub/PerMaSC/Maskanalysis/questionnaire/child randomizer/data_exp_58325-v9_task-l3g6.csv",46,2,9,"Mac OS 10.15","Firefox 91.0","Version1",11,11,"Female","English and another language (bilingual)","Raised in the UK from this age (please specify):","5","I don't know",3,3,"",3,1,"","There were issues with the videos","","","","The videos did not load until we refreshed the page. This happened 4 times.","it was fun.","210823_c179","99L",99.6240342689698,"Children","aNM","vM","L","No Acoustic Mask","Visual Mask","Low Predictability","0","aNMvM",48,2,11.9166666666667,"Female"
"4139","210719_a09",14867512,865.183058031507,589.780366519957,0,"discard_works","141L","wax","aM","vM","L","a","aMvM",2.80470452702281,1.9395214689913,2.21492416050285,2,"14867512_141LaMvM","141L_aM_vM.mp4",7,"Version4","https://gorilla.sc/uploads/schedule/14867512?filename=audioFile-45-2.weba","Block1",1,34,"/Users/kechun/Documents/GitHub/PerMaSC/Maskanalysis/questionnaire/adult randomizer/data_exp_58324-v9_task-7xnq.csv",46,2,9,"Windows 10","Chrome 92.0.4515.131","Version4",50,2,"Female","English","Born and raised in the UK","","Yes sometimes",3,4,"",2,2,"Everything worked well","","","","","","","210719_a09","141L",589.780366519957,"Adults","aM","vM","L","Acoustic Mask","Visual Mask","Low Predictability","0","aMvM",34,2,50.1666666666667,"Female"
