"parid"	"scheduleID"	"react1"	"react2"	"accuracy"	"note"	"number"	"correctans"	"audio"	"video"	"context"	"group"	"type"	"beep_response"	"length1"	"length2"	"batch"	"original_label"	"videoname"	"Task.Version"	"Spreadsheet"	"Response"	"display"	"randomise_blocks"	"row_number"	"filename"	"rowmean"	"block"	"Experiment.Version"	"Participant.OS"	"Participant.Browser"	"randomiser_t27m"	"date.of.birth_year"	"date.of.birth_month"	"sex"	"languages"	"response_6"	"response_6_text"	"mask.problems"	"Difficulty.x"	"Tiring"	"more.info.on.masks"	"Difficulty.y"	"Distraction"	"response_4_1"	"response_4_2"	"response_4_3"	"response_4_4"	"response_4_text"	"response_5"	"Comments"	"SUBJECT"	"ITEM"	"RT"	"GROUP"	"AUDIO"	"VIDEO"	"PREDICT"	"ACOUSTIC"	"VISUAL"	"PREDICTABILITY"	"ACC"	"CONDITION"	"TRIAL"	"BLOCK"	"AGE"	"SEX"	"LIST"
"210719_a25"	14557507	538.916889590977	353.540993387037	1	"clark?"	"21H"	"clerk"	"aNM"	"vNM"	"H"	"a"	"aNMvNM"	3.07813370039808	2.5392168108071	2.72459270701104	1	"14557507_21HaNMvNM"	"21H_aNM_vNM.mp4"	7	"Version8"	"https://gorilla.sc/uploads/schedule/14557507?filename=21HaNMvNMmp4-28-2.weba"	"Block1"	3	19	"/Users/kechun/Documents/GitHub/PerMaSC/Maskanalysis/questionnaire/adult randomizer/data_exp_58324-v7_task-fbmh.csv"	16	1	7	"Windows 10"	"Chrome 92.0.4515.107"	"Version8"	26	3	"Female"	"English"	"Born and raised in the UK"	NA	"Yes sometimes"	3	2	""	1	2	"Everything worked well"	NA	NA	NA	NA	NA	NA	"210719_a25"	"21H"	353.540993387037	"Adults"	"aNM"	"vNM"	"H"	"No Acoustic Mask"	"No Visual Mask"	"High Predictability"	"1"	"aNMvNM"	19	"1"	26.25	"Female"	"Version8"
"210719_a25"	14557507	890.293005558671	575.217567397281	1	"including pre-nasalisation"	"39H"	"dent"	"aNM"	"vM"	"H"	"a"	"aNMvM"	2.67036455284181	1.78007154728314	2.09514698544453	1	"14557507_39HaNMvM"	"39H_aNM_vM.mp4"	7	"Version8"	"https://gorilla.sc/uploads/schedule/14557507?filename=39HaNMvMmp4-59-2.weba"	"Block1"	1	48	"/Users/kechun/Documents/GitHub/PerMaSC/Maskanalysis/questionnaire/adult randomizer/data_exp_58324-v7_task-fbmh.csv"	46	2	7	"Windows 10"	"Chrome 92.0.4515.107"	"Version8"	26	3	"Female"	"English"	"Born and raised in the UK"	NA	"Yes sometimes"	3	2	""	1	2	"Everything worked well"	NA	NA	NA	NA	NA	NA	"210719_a25"	"39H"	575.217567397281	"Adults"	"aNM"	"vM"	"H"	"No Acoustic Mask"	"Visual Mask"	"High Predictability"	"1"	"aNMvM"	48	"2"	26.25	"Female"	"Version8"
"210719_a25"	14557507	633.130951215499	351.740805712849	1	"including prenasalisation"	"9L"	"blast"	"aNM"	"vNM"	"L"	"a"	"aNMvNM"	2.48854260588226	1.85541165466676	2.13680180016941	1	"14557507_9LaNMvNM"	"9L_aNM_vNM.mp4"	7	"Version8"	"https://gorilla.sc/uploads/schedule/14557507?filename=9LaNMvNMmp4-132-2.weba"	"Block1"	4	117	"/Users/kechun/Documents/GitHub/PerMaSC/Maskanalysis/questionnaire/adult randomizer/data_exp_58324-v7_task-fbmh.csv"	106	4	7	"Windows 10"	"Chrome 92.0.4515.107"	"Version8"	26	3	"Female"	"English"	"Born and raised in the UK"	NA	"Yes sometimes"	3	2	""	1	2	"Everything worked well"	NA	NA	NA	NA	NA	NA	"210719_a25"	"9L"	351.740805712849	"Adults"	"aNM"	"vNM"	"L"	"No Acoustic Mask"	"No Visual Mask"	"Low Predictability"	"1"	"aNMvNM"	117	"4"	26.25	"Female"	"Version8"
"210719_a41"	14610319	256.35041508586	87.84801123964	1	"nasalisation 'mban'"	"140H"	"van"	"aM"	"vNM"	"H"	"a"	"aMvNM"	2.85208491167553	2.59573449658967	2.76423690043589	1	"14610319_140HaMvNM"	"140H_aM_vNM.mp4"	7	"Version1"	"https://gorilla.sc/uploads/schedule/14610319?filename=140HaMvNMmp4-44-2.weba"	"Block1"	4	33	"/Users/kechun/Documents/GitHub/PerMaSC/Maskanalysis/questionnaire/adult randomizer/data_exp_58324-v8_task-b6hw.csv"	46	2	8	"Windows 10"	"Chrome 92.0.4515.107"	"Version1"	51	8	"Male"	"English"	"Born and raised in the UK"	NA	"Yes sometimes"	2	3	"low volume and pronunciation without being able to lip read"	2	1	"Everything worked well"	""	NA	""	NA	"none"	"One of the questions in Level 2 text on screen should say 'kerb' not 'curb'!"	"210719_a41"	"140H"	87.84801123964	"Adults"	"aM"	"vNM"	"H"	"Acoustic Mask"	"No Visual Mask"	"High Predictability"	"1"	"aMvNM"	33	"2"	51.6666666666667	"Male"	"Version1"
"210719_c12"	14456668	307.086101861472	143.704691605052	1	"onset not sure"	"112H"	"shed"	"aNM"	"vNM"	"H"	"c"	"aNMvNM"	2.28964582523062	1.98255972336915	2.14594113362557	1	"14456668_112HaNMvNM"	"112H_aNM_vNM.mp4"	7	"Version2"	"https://gorilla.sc/uploads/schedule/14456668?filename=112HaNMvNMmp4-93-2.weba"	"Block1"	4	80	"/Users/kechun/Documents/GitHub/PerMaSC/Maskanalysis/questionnaire/child randomizer/data_exp_58325-v3_task-tucf.csv"	76	3	3	"Chromium OS 13904.77.0"	"Chrome 91.0.4472.147"	"Version2"	10	7	"Female"	"English and another language (bilingual)"	"Born and raised in the UK"	NA	"I don't know"	2	1	NA	1	1	"Everything worked well"	NA	NA	NA	NA	NA	NA	"210719_c12"	"112H"	143.704691605052	"Children"	"aNM"	"vNM"	"H"	"No Acoustic Mask"	"No Visual Mask"	"High Predictability"	"1"	"aNMvNM"	80	"3"	10.5833333333333	"Female"	"Version2"
"210719_c12"	14456668	459.433274026313	316.209815175983	1	"including pre-nasalisation"	"12H"	"bread"	"aNM"	"vNM"	"H"	"c"	"aNMvNM"	2.75744794151899	2.29801466749268	2.44123812634301	1	"14456668_12HaNMvNM"	"12H_aNM_vNM.mp4"	7	"Version2"	"https://gorilla.sc/uploads/schedule/14456668?filename=12HaNMvNMmp4-29-2.weba"	"Block1"	3	20	"/Users/kechun/Documents/GitHub/PerMaSC/Maskanalysis/questionnaire/child randomizer/data_exp_58325-v3_task-tucf.csv"	16	1	3	"Chromium OS 13904.77.0"	"Chrome 91.0.4472.147"	"Version2"	10	7	"Female"	"English and another language (bilingual)"	"Born and raised in the UK"	NA	"I don't know"	2	1	NA	1	1	"Everything worked well"	NA	NA	NA	NA	NA	NA	"210719_c12"	"12H"	316.209815175983	"Children"	"aNM"	"vNM"	"H"	"No Acoustic Mask"	"No Visual Mask"	"High Predictability"	"1"	"aNMvNM"	20	"1"	10.5833333333333	"Female"	"Version2"
"210719_c12"	14456668	352.057433132525	79.2878017223848	1	"preceded by f"	"131H"	"thief"	"aM"	"vM"	"H"	"c"	"aMvM"	2.20602676439585	1.85396933126333	2.12673896267347	1	"14456668_131HaMvM"	"131H_aM_vM.mp4"	7	"Version2"	"https://gorilla.sc/uploads/schedule/14456668?filename=131HaMvMmp4-121-2.weba"	"Block1"	2	106	"/Users/kechun/Documents/GitHub/PerMaSC/Maskanalysis/questionnaire/child randomizer/data_exp_58325-v3_task-tucf.csv"	106	4	3	"Chromium OS 13904.77.0"	"Chrome 91.0.4472.147"	"Version2"	10	7	"Female"	"English and another language (bilingual)"	"Born and raised in the UK"	NA	"I don't know"	2	1	NA	1	1	"Everything worked well"	NA	NA	NA	NA	NA	NA	"210719_c12"	"131H"	79.2878017223848	"Children"	"aM"	"vM"	"H"	"Acoustic Mask"	"Visual Mask"	"High Predictability"	"1"	"aMvM"	106	"4"	10.5833333333333	"Female"	"Version2"
"210719_c12"	14456668	660.346897312911	554.574747012241	1	"pre-nasalisation"	"2H"	"barn"	"aNM"	"vNM"	"H"	"c"	"aNMvNM"	2.58348807714492	1.92314117983201	2.02891333013268	1	"14456668_2HaNMvNM"	"2H_aNM_vNM.mp4"	7	"Version2"	"https://gorilla.sc/uploads/schedule/14456668?filename=2HaNMvNMmp4-69-2.weba"	"Block1"	1	58	"/Users/kechun/Documents/GitHub/PerMaSC/Maskanalysis/questionnaire/child randomizer/data_exp_58325-v3_task-tucf.csv"	46	2	3	"Chromium OS 13904.77.0"	"Chrome 91.0.4472.147"	"Version2"	10	7	"Female"	"English and another language (bilingual)"	"Born and raised in the UK"	NA	"I don't know"	2	1	NA	1	1	"Everything worked well"	NA	NA	NA	NA	NA	NA	"210719_c12"	"2H"	554.574747012241	"Children"	"aNM"	"vNM"	"H"	"No Acoustic Mask"	"No Visual Mask"	"High Predictability"	"1"	"aNMvNM"	58	"2"	10.5833333333333	"Female"	"Version2"
"210719_c12"	14456668	653.279822563012	550.867620182062	1	"pre-nasalisation"	"38H"	"den"	"aNM"	"vM"	"H"	"c"	"aNMvM"	3.0993382505207	2.44605842795769	2.54847063033864	1	"14456668_38HaNMvM"	"38H_aNM_vM.mp4"	7	"Version2"	"https://gorilla.sc/uploads/schedule/14456668?filename=38HaNMvMmp4-16-2.weba"	"Block1"	3	7	"/Users/kechun/Documents/GitHub/PerMaSC/Maskanalysis/questionnaire/child randomizer/data_exp_58325-v3_task-tucf.csv"	16	1	3	"Chromium OS 13904.77.0"	"Chrome 91.0.4472.147"	"Version2"	10	7	"Female"	"English and another language (bilingual)"	"Born and raised in the UK"	NA	"I don't know"	2	1	NA	1	1	"Everything worked well"	NA	NA	NA	NA	NA	NA	"210719_c12"	"38H"	550.867620182062	"Children"	"aNM"	"vM"	"H"	"No Acoustic Mask"	"Visual Mask"	"High Predictability"	"1"	"aNMvM"	7	"1"	10.5833333333333	"Female"	"Version2"
"210719_c12"	14456668	401.295235963021	275.561011853841	1	"including pre-nasalisation"	"58H"	"goal"	"aNM"	"vM"	"H"	"c"	"aNMvM"	2.47632547086205	2.07503023489903	2.20076445900821	1	"14456668_58HaNMvM"	"58H_aNM_vM.mp4"	7	"Version2"	"https://gorilla.sc/uploads/schedule/14456668?filename=58HaNMvMmp4-130-2.weba"	"Block1"	2	115	"/Users/kechun/Documents/GitHub/PerMaSC/Maskanalysis/questionnaire/child randomizer/data_exp_58325-v3_task-tucf.csv"	106	4	3	"Chromium OS 13904.77.0"	"Chrome 91.0.4472.147"	"Version2"	10	7	"Female"	"English and another language (bilingual)"	"Born and raised in the UK"	NA	"I don't know"	2	1	NA	1	1	"Everything worked well"	NA	NA	NA	NA	NA	NA	"210719_c12"	"58H"	275.561011853841	"Children"	"aNM"	"vM"	"H"	"No Acoustic Mask"	"Visual Mask"	"High Predictability"	"1"	"aNMvM"	115	"4"	10.5833333333333	"Female"	"Version2"
"210719_c12"	14456668	561.345996056081	448.583099230681	1	"pre-nasalisation"	"5H"	"beam"	"aNM"	"vM"	"H"	"c"	"aNMvM"	2.6849907026521	2.12364470659602	2.23640760342142	1	"14456668_5HaNMvM"	"5H_aNM_vM.mp4"	7	"Version2"	"https://gorilla.sc/uploads/schedule/14456668?filename=5HaNMvMmp4-77-2.weba"	"Block1"	4	64	"/Users/kechun/Documents/GitHub/PerMaSC/Maskanalysis/questionnaire/child randomizer/data_exp_58325-v3_task-tucf.csv"	76	3	3	"Chromium OS 13904.77.0"	"Chrome 91.0.4472.147"	"Version2"	10	7	"Female"	"English and another language (bilingual)"	"Born and raised in the UK"	NA	"I don't know"	2	1	NA	1	1	"Everything worked well"	NA	NA	NA	NA	NA	NA	"210719_c12"	"5H"	448.583099230681	"Children"	"aNM"	"vM"	"H"	"No Acoustic Mask"	"Visual Mask"	"High Predictability"	"1"	"aNMvM"	64	"3"	10.5833333333333	"Female"	"Version2"
"210719_c12"	14456668	463.141266039391	340.948308759731	1	"pre-nasalisation"	"60L"	"grin"	"aNM"	"vNM"	"L"	"c"	"aNMvNM"	2.7627835372826	2.29964227124321	2.42183522852287	1	"14456668_60LaNMvNM"	"60L_aNM_vNM.mp4"	7	"Version2"	"https://gorilla.sc/uploads/schedule/14456668?filename=60LaNMvNMmp4-60-2.weba"	"Block1"	1	49	"/Users/kechun/Documents/GitHub/PerMaSC/Maskanalysis/questionnaire/child randomizer/data_exp_58325-v3_task-tucf.csv"	46	2	3	"Chromium OS 13904.77.0"	"Chrome 91.0.4472.147"	"Version2"	10	7	"Female"	"English and another language (bilingual)"	"Born and raised in the UK"	NA	"I don't know"	2	1	NA	1	1	"Everything worked well"	NA	NA	NA	NA	NA	NA	"210719_c12"	"60L"	340.948308759731	"Children"	"aNM"	"vNM"	"L"	"No Acoustic Mask"	"No Visual Mask"	"Low Predictability"	"1"	"aNMvNM"	49	"2"	10.5833333333333	"Female"	"Version2"
"210719_c12"	14456668	518.134668406847	392.145651966927	1	"pre-nasalisation"	"61H"	"growl"	"aM"	"vM"	"H"	"c"	"aMvM"	2.62567843996209	2.10754377155524	2.23353278799516	1	"14456668_61HaMvM"	"61H_aM_vM.mp4"	7	"Version2"	"https://gorilla.sc/uploads/schedule/14456668?filename=61HaMvMmp4-126-2.weba"	"Block1"	2	111	"/Users/kechun/Documents/GitHub/PerMaSC/Maskanalysis/questionnaire/child randomizer/data_exp_58325-v3_task-tucf.csv"	106	4	3	"Chromium OS 13904.77.0"	"Chrome 91.0.4472.147"	"Version2"	10	7	"Female"	"English and another language (bilingual)"	"Born and raised in the UK"	NA	"I don't know"	2	1	NA	1	1	"Everything worked well"	NA	NA	NA	NA	NA	NA	"210719_c12"	"61H"	392.145651966927	"Children"	"aM"	"vM"	"H"	"Acoustic Mask"	"Visual Mask"	"High Predictability"	"1"	"aMvM"	111	"4"	10.5833333333333	"Female"	"Version2"
"210719_c12"	14456668	483.18702097295	223.72542717945	1	"pre-nasalisation"	"72L"	"juice"	"aNM"	"vNM"	"L"	"c"	"aNMvNM"	2.58734857971605	2.1041615587431	2.3636231525366	1	"14456668_72LaNMvNM"	"72L_aNM_vNM.mp4"	7	"Version2"	"https://gorilla.sc/uploads/schedule/14456668?filename=72LaNMvNMmp4-96-2.weba"	"Block1"	4	83	"/Users/kechun/Documents/GitHub/PerMaSC/Maskanalysis/questionnaire/child randomizer/data_exp_58325-v3_task-tucf.csv"	76	3	3	"Chromium OS 13904.77.0"	"Chrome 91.0.4472.147"	"Version2"	10	7	"Female"	"English and another language (bilingual)"	"Born and raised in the UK"	NA	"I don't know"	2	1	NA	1	1	"Everything worked well"	NA	NA	NA	NA	NA	NA	"210719_c12"	"72L"	223.72542717945	"Children"	"aNM"	"vNM"	"L"	"No Acoustic Mask"	"No Visual Mask"	"Low Predictability"	"1"	"aNMvNM"	83	"3"	10.5833333333333	"Female"	"Version2"
"210719_c26"	14526592	747.525237765359	564.677305315859	1	"'clocp'"	"21L"	"clerk"	"aM"	"vM"	"L"	"c"	"aMvM"	2.90637805614469	2.15885281837933	2.34170075082883	1	"14526592_21LaMvM"	"21L_aM_vM.mp4"	7	"Version4"	"https://gorilla.sc/uploads/schedule/14526592?filename=21LaMvMmp4-107-2.weba"	"Block1"	3	92	"/Users/kechun/Documents/GitHub/PerMaSC/Maskanalysis/questionnaire/child randomizer/data_exp_58325-v5_task-gv44.csv"	106	4	5	"Windows 10"	"Chrome 92.0.4515.107"	"Version4"	11	4	"Female"	"English"	"Born and raised in the UK"	NA	"No"	2	2	"They have limited experience of communicating with someone with a face mask"	2	1	"Everything worked well"	NA	NA	NA	NA	""	""	"210719_c26"	"21L"	564.677305315859	"Children"	"aM"	"vM"	"L"	"Acoustic Mask"	"Visual Mask"	"Low Predictability"	"1"	"aMvM"	92	"4"	11.3333333333333	"Female"	"Version4"
"210719_c26"	14526592	802.197174679236	599.038378382946	1	"sounds like 'flog'. I think it ends with a click actually"	"51L"	"flock"	"aNM"	"vM"	"L"	"c"	"aNMvM"	2.99644217065691	2.19424499597767	2.39740379227396	1	"14526592_51LaNMvM"	"51L_aNM_vM.mp4"	7	"Version4"	"https://gorilla.sc/uploads/schedule/14526592?filename=51LaNMvMmp4-116-2.weba"	"Block1"	3	101	"/Users/kechun/Documents/GitHub/PerMaSC/Maskanalysis/questionnaire/child randomizer/data_exp_58325-v5_task-gv44.csv"	106	4	5	"Windows 10"	"Chrome 92.0.4515.107"	"Version4"	11	4	"Female"	"English"	"Born and raised in the UK"	NA	"No"	2	2	"They have limited experience of communicating with someone with a face mask"	2	1	"Everything worked well"	NA	NA	NA	NA	""	""	"210719_c26"	"51L"	599.038378382946	"Children"	"aNM"	"vM"	"L"	"No Acoustic Mask"	"Visual Mask"	"Low Predictability"	"1"	"aNMvM"	101	"4"	11.3333333333333	"Female"	"Version4"
"210719_c26"	14526592	749.160536254233	468.810446648493	1	"I think the final 'k' is voiced though"	"73H"	"junk"	"aNM"	"vNM"	"H"	"c"	"aNMvNM"	3.04152247462633	2.2923619383721	2.57271202797784	1	"14526592_73HaNMvNM"	"73H_aNM_vNM.mp4"	7	"Version4"	"https://gorilla.sc/uploads/schedule/14526592?filename=73HaNMvNMmp4-22-2.weba"	"Block1"	1	13	"/Users/kechun/Documents/GitHub/PerMaSC/Maskanalysis/questionnaire/child randomizer/data_exp_58325-v5_task-gv44.csv"	16	1	5	"Windows 10"	"Chrome 92.0.4515.107"	"Version4"	11	4	"Female"	"English"	"Born and raised in the UK"	NA	"No"	2	2	"They have limited experience of communicating with someone with a face mask"	2	1	"Everything worked well"	NA	NA	NA	NA	""	""	"210719_c26"	"73H"	468.810446648493	"Children"	"aNM"	"vNM"	"H"	"No Acoustic Mask"	"No Visual Mask"	"High Predictability"	"1"	"aNMvNM"	13	"1"	11.3333333333333	"Female"	"Version4"
"210719_c29"	14956811	670.282044338458	486.466054742869	1	"it ends with a click"	"107L"	"rope"	"aM"	"vNM"	"L"	"c"	"aMvNM"	2.81679841484968	2.14651637051122	2.33033236010681	1	"14956811_107LaMvNM"	"107L_aM_vNM.mp4"	7	"Version2"	"https://gorilla.sc/uploads/schedule/14956811?filename=107LaMvNMmp4-62-2.weba"	"Block1"	1	51	"/Users/kechun/Documents/GitHub/PerMaSC/Maskanalysis/questionnaire/child randomizer/data_exp_58325-v9_task-tucf.csv"	46	2	9	"Windows 10"	"Chrome 92.0.4515.107"	"Version2"	11	7	"Female"	"English"	"Born and raised in the UK"	""	"No"	2	1	"Muffled Speech"	2	1	""	"There were issues with the videos"	""	""	""	"When I clicked on the video the screen went white and i didnt know if it was playing because i couldn't hear. It happened 3 times."	""	"210719_c29"	"107L"	486.466054742869	"Children"	"aM"	"vNM"	"L"	"Acoustic Mask"	"No Visual Mask"	"Low Predictability"	"1"	"aMvNM"	51	"2"	11.5833333333333	"Female"	"Version2"
"210719_c47"	14557278	1711.06649575987	1458.51391402144	1	" s"	"23H"	"clock"	"aM"	"vM"	"H"	"c"	"aMvM"	3.50022613783878	1.78915964207891	2.04171222381734	1	"14557278_23HaMvM"	"23H_aM_vM.mp4"	7	"Version5"	"https://gorilla.sc/uploads/schedule/14557278?filename=23HaMvMmp4-39-2.weba"	"Block1"	2	30	"/Users/kechun/Documents/GitHub/PerMaSC/Maskanalysis/questionnaire/child randomizer/data_exp_58325-v5_task-6srq.csv"	16	1	5	"Windows 10"	"Chrome 92.0.4515.107"	"Version5"	10	7	"Male"	"English"	"Born and raised in the UK"	NA	"Yes sometimes"	3	1	"He says he understands his teachers quite well when they wear face masks."	1	2	"Everything worked well"	NA	NA	NA	NA	"A couple of times my child pressed next first instead of saying the word."	"Very enjoyable"	"210719_c47"	"23H"	1458.51391402144	"Children"	"aM"	"vM"	"H"	"Acoustic Mask"	"Visual Mask"	"High Predictability"	"1"	"aMvM"	30	"1"	10.5833333333333	"Male"	"Version5"
"210719_c47"	14557278	1555.02476145108	1316.52760236017	1	"unsure_juiced"	"72H"	"juice"	"aM"	"vM"	"H"	"c"	"aMvM"	3.55700117235671	2.00197641090563	2.24047356999654	1	"14557278_72HaMvM"	"72H_aM_vM.mp4"	7	"Version5"	"https://gorilla.sc/uploads/schedule/14557278?filename=72HaMvMmp4-55-2.weba"	"Block1"	4	44	"/Users/kechun/Documents/GitHub/PerMaSC/Maskanalysis/questionnaire/child randomizer/data_exp_58325-v5_task-6srq.csv"	46	2	5	"Windows 10"	"Chrome 92.0.4515.107"	"Version5"	10	7	"Male"	"English"	"Born and raised in the UK"	NA	"Yes sometimes"	3	1	"He says he understands his teachers quite well when they wear face masks."	1	2	"Everything worked well"	NA	NA	NA	NA	"A couple of times my child pressed next first instead of saying the word."	"Very enjoyable"	"210719_c47"	"72H"	1316.52760236017	"Children"	"aM"	"vM"	"H"	"Acoustic Mask"	"Visual Mask"	"High Predictability"	"1"	"aMvM"	44	"2"	10.5833333333333	"Male"	"Version5"
"210719_c53"	15074698	1033.29368826895	880.857840041741	1	"pre-nasaling"	"12L"	"bread"	"aNM"	"vM"	"L"	"c"	"aNMvM"	2.90093949975224	1.86764581148329	2.0200816597105	1	"15074698_12LaNMvM"	"12L_aNM_vM.mp4"	7	"Version4"	"https://gorilla.sc/uploads/schedule/15074698?filename=12LaNMvMmp4-103-2.weba"	"Block1"	3	90	"/Users/kechun/Documents/GitHub/PerMaSC/Maskanalysis/questionnaire/child randomizer/data_exp_58325-v9_task-gv44.csv"	76	3	9	"Windows 10"	"Edge 92.0.902.67"	"Version4"	11	1	"Male"	"English and another language (bilingual)"	"Born and raised in the UK"	""	"Yes sometimes"	2	2	""	2	1	"Everything worked well"	""	""	""	""	""	""	"210719_c53"	"12L"	880.857840041741	"Children"	"aNM"	"vM"	"L"	"No Acoustic Mask"	"Visual Mask"	"Low Predictability"	"1"	"aNMvM"	90	"3"	11.0833333333333	"Male"	"Version4"
"210719_c53"	15074698	879.845932280059	744.480896048089	1	"pre-nasaling"	"140H"	"van"	"aNM"	"vNM"	"H"	"c"	"aNMvNM"	3.47648417297657	2.59663824069651	2.73200327692848	1	"15074698_140HaNMvNM"	"140H_aNM_vNM.mp4"	7	"Version4"	"https://gorilla.sc/uploads/schedule/15074698?filename=140HaNMvNMmp4-128-2.weba"	"Block1"	4	113	"/Users/kechun/Documents/GitHub/PerMaSC/Maskanalysis/questionnaire/child randomizer/data_exp_58325-v9_task-gv44.csv"	106	4	9	"Windows 10"	"Edge 92.0.902.67"	"Version4"	11	1	"Male"	"English and another language (bilingual)"	"Born and raised in the UK"	""	"Yes sometimes"	2	2	""	2	1	"Everything worked well"	""	""	""	""	""	""	"210719_c53"	"140H"	744.480896048089	"Children"	"aNM"	"vNM"	"H"	"No Acoustic Mask"	"No Visual Mask"	"High Predictability"	"1"	"aNMvNM"	113	"4"	11.0833333333333	"Male"	"Version4"
"210719_c53"	15074698	2335.17558147279	2161.59340683428	1	"pre-nasaling"	"41H"	"dive"	"aM"	"vM"	"H"	"c"	"aMvM"	4.39849595900498	2.06332037753219	2.2369025521707	1	"15074698_41HaMvM"	"41H_aM_vM.mp4"	7	"Version4"	"https://gorilla.sc/uploads/schedule/15074698?filename=41HaMvMmp4-80-2.weba"	"Block1"	3	67	"/Users/kechun/Documents/GitHub/PerMaSC/Maskanalysis/questionnaire/child randomizer/data_exp_58325-v9_task-gv44.csv"	76	3	9	"Windows 10"	"Edge 92.0.902.67"	"Version4"	11	1	"Male"	"English and another language (bilingual)"	"Born and raised in the UK"	""	"Yes sometimes"	2	2	""	2	1	"Everything worked well"	""	""	""	""	""	""	"210719_c53"	"41H"	2161.59340683428	"Children"	"aM"	"vM"	"H"	"Acoustic Mask"	"Visual Mask"	"High Predictability"	"1"	"aMvM"	67	"3"	11.0833333333333	"Male"	"Version4"
"210719_c53"	15074698	1264.84689329565	1127.08766710516	1	"dun?"	"42L"	"doll"	"aM"	"vNM"	"L"	"c"	"aMvNM"	3.18760089576726	1.92275400247161	2.0605132286621	1	"15074698_42LaMvNM"	"42L_aM_vNM.mp4"	7	"Version4"	"https://gorilla.sc/uploads/schedule/15074698?filename=42LaMvNMmp4-124-2.weba"	"Block1"	4	109	"/Users/kechun/Documents/GitHub/PerMaSC/Maskanalysis/questionnaire/child randomizer/data_exp_58325-v9_task-gv44.csv"	106	4	9	"Windows 10"	"Edge 92.0.902.67"	"Version4"	11	1	"Male"	"English and another language (bilingual)"	"Born and raised in the UK"	""	"Yes sometimes"	2	2	""	2	1	"Everything worked well"	""	""	""	""	""	""	"210719_c53"	"42L"	1127.08766710516	"Children"	"aM"	"vNM"	"L"	"Acoustic Mask"	"No Visual Mask"	"Low Predictability"	"1"	"aMvNM"	109	"4"	11.0833333333333	"Male"	"Version4"
"210719_c53"	15074698	931.990402929355	817.459152929335	1	"pre-nasaling"	"59H"	"gown"	"aM"	"vNM"	"H"	"c"	"aMvNM"	2.82671379040787	1.89472338747851	2.00925463747853	1	"15074698_59HaMvNM"	"59H_aM_vNM.mp4"	7	"Version4"	"https://gorilla.sc/uploads/schedule/15074698?filename=59HaMvNMmp4-109-2.weba"	"Block1"	4	94	"/Users/kechun/Documents/GitHub/PerMaSC/Maskanalysis/questionnaire/child randomizer/data_exp_58325-v9_task-gv44.csv"	106	4	9	"Windows 10"	"Edge 92.0.902.67"	"Version4"	11	1	"Male"	"English and another language (bilingual)"	"Born and raised in the UK"	""	"Yes sometimes"	2	2	""	2	1	"Everything worked well"	""	""	""	""	""	""	"210719_c53"	"59H"	817.459152929335	"Children"	"aM"	"vNM"	"H"	"Acoustic Mask"	"No Visual Mask"	"High Predictability"	"1"	"aMvNM"	94	"4"	11.0833333333333	"Male"	"Version4"
"210719_c66"	14758562	558.142550124866	162.840011865656	1	"unclear overlap with noise"	"120H"	"sponge"	"aM"	"vM"	"H"	"c"	"aMvM"	2.75862638030046	2.20048383017559	2.5957863684348	1	"14758562_120HaMvM"	"120H_aM_vM.mp4"	7	"Version1"	"https://gorilla.sc/uploads/schedule/14758562?filename=audioFile-63-2.weba"	"Block1"	2	52	"/Users/kechun/Documents/GitHub/PerMaSC/Maskanalysis/questionnaire/child randomizer/data_exp_58325-v9_task-l3g6.csv"	46	2	9	"Windows 10"	"Chrome 92.0.4515.107"	"Version1"	10	5	"Male"	"English"	"Born and raised in the UK"	""	"Yes sometimes"	4	3	""	1	1	"Everything worked well"	""	""	""	""	"NO"	"MY CHILD ENJOID"	"210719_c66"	"120H"	162.840011865656	"Children"	"aM"	"vM"	"H"	"Acoustic Mask"	"Visual Mask"	"High Predictability"	"1"	"aMvM"	52	"2"	10.4166666666667	"Male"	"Version1"
"210719_c71"	14549435	867.589626638003	744.720473412213	1	"unsure_"	"128L"	"swan"	"aNM"	"vM"	"L"	"c"	"aNMvM"	2.73609715152902	1.86850752489102	1.99137667811681	1	"14549435_128LaNMvM"	"128L_aNM_vM.mp4"	7	"Version5"	"https://gorilla.sc/uploads/schedule/14549435?filename=128LaNMvMmp4-19-2.weba"	"Block1"	2	10	"/Users/kechun/Documents/GitHub/PerMaSC/Maskanalysis/questionnaire/child randomizer/data_exp_58325-v5_task-6srq.csv"	16	1	5	"Chromium OS 13904.77.0"	"Chrome 91.0.4472.147"	"Version5"	11	3	"Female"	"English and another language (bilingual)"	"Born and raised in the UK"	NA	"No"	2	3	"She can hear well but because of the face mask blocking direct speech coming through, it's easy to find that normal speech as become muffled and difficult to hear. It makes listening a harder task."	2	1	"Everything worked well"	NA	NA	NA	NA	"N/A"	"It was done well and efficiently, and both me and my daughter enjoyed it. In the future, if there are any online research opportunities like this, we'd be interested to take part!"	"210719_c71"	"128L"	744.720473412213	"Children"	"aNM"	"vM"	"L"	"No Acoustic Mask"	"Visual Mask"	"Low Predictability"	"1"	"aNMvM"	10	"1"	11.25	"Female"	"Version5"
"210723_a76"	14582654	247.340286215432	32.2002885496921	1	"clock? Alice's k?"	"80H"	"lock"	"aNM"	"vM"	"H"	"a"	"aNMvM"	2.37673463269766	2.12939434648223	2.34453434414797	1	"14582654_80HaNMvM"	"80H_aNM_vM.mp4"	7	"Version8"	"https://gorilla.sc/uploads/schedule/14582654?filename=80HaNMvMmp4-35-2.weba"	"Block1"	1	26	"/Users/kechun/Documents/GitHub/PerMaSC/Maskanalysis/questionnaire/adult randomizer/data_exp_58324-v8_task-fbmh.csv"	16	1	8	"Windows 10"	"Chrome 92.0.4515.107"	"Version8"	21	8	"Female"	"English"	"Born and raised in the UK"	NA	"Yes sometimes"	3	1	"Sometimes there is absolutely no problem understanding and sometimes it is quite hard."	2	1	"Everything worked well"	""	NA	""	NA	"Sometimes it took a while to load my responses."	"I really enjoyed doing it - than you so much!"	"210723_a76"	"80H"	32.2002885496921	"Adults"	"aNM"	"vM"	"H"	"No Acoustic Mask"	"Visual Mask"	"High Predictability"	"1"	"aNMvM"	26	"1"	21.6666666666667	"Female"	"Version8"
"210723_a78"	14657603	681.371566928136	372.321472231246	1	"nokch?"	"91L"	"notch"	"aM"	"vM"	"L"	"a"	"aMvM"	2.87263118729965	2.19125962037151	2.5003097150684	1	"14657603_91LaMvM"	"91L_aM_vM.mp4"	7	"Version7"	"https://gorilla.sc/uploads/schedule/14657603?filename=91LaMvMmp4-130-2.weba"	"Block1"	1	115	"/Users/kechun/Documents/GitHub/PerMaSC/Maskanalysis/questionnaire/adult randomizer/data_exp_58324-v9_task-tmfe.csv"	106	4	9	"Windows 10"	"Chrome 92.0.4515.107"	"Version7"	22	3	"Female"	"English"	"Born and raised in the UK"	""	"Yes sometimes"	3	4	""	5	3	"Everything worked well"	""	""	""	""	""	""	"210723_a78"	"91L"	372.321472231246	"Adults"	"aM"	"vM"	"L"	"Acoustic Mask"	"Visual Mask"	"Low Predictability"	"1"	"aMvM"	115	"4"	22.25	"Female"	"Version7"
"210725_a120"	14668484	976.741110874902	722.289957079712	1	"glotalized t"	"19H"	"chat"	"aNM"	"vM"	"H"	"a"	"aNMvM"	3.02956044779877	2.05281933692387	2.30727049071906	1	"14668484_19HaNMvM"	"19H_aNM_vM.mp4"	7	"Version4"	"https://gorilla.sc/uploads/schedule/14668484?filename=19HaNMvMmp4-13-2.weba"	"Block1"	1	4	"/Users/kechun/Documents/GitHub/PerMaSC/Maskanalysis/questionnaire/adult randomizer/data_exp_58324-v9_task-7xnq.csv"	16	1	9	"Windows 10"	"Chrome 92.0.4515.107"	"Version4"	20	9	"Male"	"English"	"Born and raised in the UK"	""	"Yes sometimes"	3	3	""	3	2	""	"There were issues with the videos"	""	""	""	"Around 3 videos lagged whilst playing"	""	"210725_a120"	"19H"	722.289957079712	"Adults"	"aNM"	"vM"	"H"	"No Acoustic Mask"	"Visual Mask"	"High Predictability"	"1"	"aNMvM"	4	"1"	20.75	"Male"	"Version4"
"210725_a120"	14668484	980.023975561322	796.825827413191	1	"voiced p"	"32H"	"crop"	"aNM"	"vNM"	"H"	"a"	"aNMvNM"	3.108014397619	2.12799042205768	2.31118857020581	1	"14668484_32HaNMvNM"	"32H_aNM_vNM.mp4"	7	"Version4"	"https://gorilla.sc/uploads/schedule/14668484?filename=32HaNMvNMmp4-14-2.weba"	"Block1"	1	5	"/Users/kechun/Documents/GitHub/PerMaSC/Maskanalysis/questionnaire/adult randomizer/data_exp_58324-v9_task-7xnq.csv"	16	1	9	"Windows 10"	"Chrome 92.0.4515.107"	"Version4"	20	9	"Male"	"English"	"Born and raised in the UK"	""	"Yes sometimes"	3	3	""	3	2	""	"There were issues with the videos"	""	""	""	"Around 3 videos lagged whilst playing"	""	"210725_a120"	"32H"	796.825827413191	"Adults"	"aNM"	"vNM"	"H"	"No Acoustic Mask"	"No Visual Mask"	"High Predictability"	"1"	"aNMvNM"	5	"1"	20.75	"Male"	"Version4"
"210725_a139"	14758059	837.424628465978	583.952886064478	1	"clerk?"	"23H"	"clock"	"aNM"	"vM"	"H"	"a"	"aNMvM"	2.61130758674881	1.77388295828283	2.02735470068433	1	"14758059_23HaNMvM"	"23H_aNM_vM.mp4"	7	"Version4"	"https://gorilla.sc/uploads/schedule/14758059?filename=audioFile-50-2.weba"	"Block1"	2	39	"/Users/kechun/Documents/GitHub/PerMaSC/Maskanalysis/questionnaire/adult randomizer/data_exp_58324-v9_task-7xnq.csv"	46	2	9	"Mac OS 10.15.7"	"Chrome 91.0.4472.114"	"Version4"	28	11	"Female"	"English"	"Born and raised in the UK"	""	"Yes sometimes"	2	1	""	1	1	"Everything worked well"	""	""	""	""	""	""	"210725_a139"	"23H"	583.952886064478	"Adults"	"aNM"	"vM"	"H"	"No Acoustic Mask"	"Visual Mask"	"High Predictability"	"1"	"aNMvM"	39	"2"	28.9166666666667	"Female"	"Version4"
"210725_a156"	14930256	529.172144592766	449.631966021336	1	"including pre-nasalisation"	"3H"	"bay"	"aM"	"vM"	"H"	"a"	"aMvM"	2.5021707869162	1.97299864232343	2.05253882089486	1	"14930256_3HaMvM"	"3H_aM_vM.mp4"	7	"Version8"	"https://gorilla.sc/uploads/schedule/14930256?filename=3HaMvMmp4-43-2.weba"	"Block1"	2	32	"/Users/kechun/Documents/GitHub/PerMaSC/Maskanalysis/questionnaire/adult randomizer/data_exp_58324-v9_task-fbmh.csv"	44	2	9	"Windows 10"	"Chrome 92.0.4515.131"	"Version8"	27	6	"Male"	"English"	"Born and raised in the UK"	""	"No"	2	1	"Usually I can understand others without any issue but some have struggled to understand me while I've worn a mask"	2	2	"Everything worked well"	""	""	""	""	""	""	"210725_a156"	"3H"	449.631966021336	"Adults"	"aM"	"vM"	"H"	"Acoustic Mask"	"Visual Mask"	"High Predictability"	"1"	"aMvM"	32	"2"	27.5	"Male"	"Version8"
"210725_a156"	14930256	914.770497829867	600.016179435837	1	"including pre-nasalisation"	"40H"	"ditch"	"aM"	"vM"	"H"	"a"	"aMvM"	2.72786932236929	1.81309882453942	2.12785314293345	1	"14930256_40HaMvM"	"40H_aM_vM.mp4"	7	"Version8"	"https://gorilla.sc/uploads/schedule/14930256?filename=40HaMvMmp4-64-2.weba"	"Block1"	2	51	"/Users/kechun/Documents/GitHub/PerMaSC/Maskanalysis/questionnaire/adult randomizer/data_exp_58324-v9_task-fbmh.csv"	44	2	9	"Windows 10"	"Chrome 92.0.4515.131"	"Version8"	27	6	"Male"	"English"	"Born and raised in the UK"	""	"No"	2	1	"Usually I can understand others without any issue but some have struggled to understand me while I've worn a mask"	2	2	"Everything worked well"	""	""	""	""	""	""	"210725_a156"	"40H"	600.016179435837	"Adults"	"aM"	"vM"	"H"	"Acoustic Mask"	"Visual Mask"	"High Predictability"	"1"	"aMvM"	51	"2"	27.5	"Male"	"Version8"
"210725_a165"	14947964	520.968288335526	320.009128282636	1	"sounds like 'hize' or 'hithe'."	"68H"	"hive"	"aM"	"vM"	"H"	"a"	"aMvM"	2.75513587025009	2.23416758191456	2.43512674196745	1	"14947964_68HaMvM"	"68H_aM_vM.mp4"	7	"Version5"	"https://gorilla.sc/uploads/schedule/14947964?filename=68HaMvMmp4-124-2.weba"	"Block1"	3	109	"/Users/kechun/Documents/GitHub/PerMaSC/Maskanalysis/questionnaire/adult randomizer/data_exp_58324-v9_task-klg9.csv"	106	4	9	"Chromium OS 13904.97.0"	"Chrome 91.0.4472.167"	"Version5"	24	5	"Female"	"English"	"Born and raised in the UK"	""	"No"	2	3	"If I'm talking to someone with a face mask for a long period (more than 30 mins), it can sometimes be a bit strenuous"	1	1	"Everything worked well"	""	""	""	""	"there was one video that took a little while to load, but everything was fine for the rest of the time"	""	"210725_a165"	"68H"	320.009128282636	"Adults"	"aM"	"vM"	"H"	"Acoustic Mask"	"Visual Mask"	"High Predictability"	"1"	"aMvM"	109	"4"	24.4166666666667	"Female"	"Version5"
"210725_a176"	15219350	510.25554874261	143.71514470222	1	"brent?"	"104L"	"rent"	"aM"	"vNM"	"L"	"a"	"aMvNM"	2.72609961065357	2.21584406191096	2.58238446595135	1	"15219350_104LaMvNM"	"104L_aM_vNM.mp4"	7	"Version7"	"https://gorilla.sc/uploads/schedule/15219350?filename=104LaMvNMmp4-101-2.weba"	"Block1"	3	88	"/Users/kechun/Documents/GitHub/PerMaSC/Maskanalysis/questionnaire/adult randomizer/data_exp_58324-v9_task-tmfe.csv"	76	3	9	"Windows 10"	"Chrome 92.0.4515.159"	"Version7"	20	8	"Female"	"English"	"Born and raised in the UK"	""	"No"	2	1	"Hasn't been a huge issue. Sometimes hard to understand in loud spaces"	1	1	"Everything worked well"	""	""	""	""	""	""	"210725_a176"	"104L"	143.71514470222	"Adults"	"aM"	"vNM"	"L"	"Acoustic Mask"	"No Visual Mask"	"Low Predictability"	"1"	"aMvNM"	88	"3"	20.6666666666667	"Female"	"Version7"
"210725_a176"	15219350	609.357921677773	531.780750625103	1	"dawn? usually L in response is clear"	"42L"	"doll"	"aNM"	"vNM"	"L"	"a"	"aNMvNM"	2.58017098089135	1.97081305921358	2.04839023026625	1	"15219350_42LaNMvNM"	"42L_aNM_vNM.mp4"	7	"Version7"	"https://gorilla.sc/uploads/schedule/15219350?filename=42LaNMvNMmp4-37-2.weba"	"Block1"	4	28	"/Users/kechun/Documents/GitHub/PerMaSC/Maskanalysis/questionnaire/adult randomizer/data_exp_58324-v9_task-tmfe.csv"	16	1	9	"Windows 10"	"Chrome 92.0.4515.159"	"Version7"	20	8	"Female"	"English"	"Born and raised in the UK"	""	"No"	2	1	"Hasn't been a huge issue. Sometimes hard to understand in loud spaces"	1	1	"Everything worked well"	""	""	""	""	""	""	"210725_a176"	"42L"	531.780750625103	"Adults"	"aNM"	"vNM"	"L"	"No Acoustic Mask"	"No Visual Mask"	"Low Predictability"	"1"	"aNMvNM"	28	"1"	20.6666666666667	"Female"	"Version7"
"210725_a176"	15219350	815.439363077333	678.577817938473	1	"but appears unsure"	"60L"	"grin"	"aM"	"vNM"	"L"	"a"	"aMvNM"	3.0685750149764	2.25313565189907	2.38999719703793	1	"15219350_60LaMvNM"	"60L_aM_vNM.mp4"	7	"Version7"	"https://gorilla.sc/uploads/schedule/15219350?filename=60LaMvNMmp4-54-2.weba"	"Block1"	1	43	"/Users/kechun/Documents/GitHub/PerMaSC/Maskanalysis/questionnaire/adult randomizer/data_exp_58324-v9_task-tmfe.csv"	46	2	9	"Windows 10"	"Chrome 92.0.4515.159"	"Version7"	20	8	"Female"	"English"	"Born and raised in the UK"	""	"No"	2	1	"Hasn't been a huge issue. Sometimes hard to understand in loud spaces"	1	1	"Everything worked well"	""	""	""	""	""	""	"210725_a176"	"60L"	678.577817938473	"Adults"	"aM"	"vNM"	"L"	"Acoustic Mask"	"No Visual Mask"	"Low Predictability"	"1"	"aMvNM"	43	"2"	20.6666666666667	"Female"	"Version7"
"210725_a176"	15219350	727.600602114588	560.458928930758	1	"appears unsure"	"64L"	"hen"	"aM"	"vNM"	"L"	"a"	"aMvNM"	2.85444470040102	2.12684409828643	2.29398577147026	1	"15219350_64LaMvNM"	"64L_aM_vNM.mp4"	7	"Version7"	"https://gorilla.sc/uploads/schedule/15219350?filename=64LaMvNMmp4-111-2.weba"	"Block1"	2	96	"/Users/kechun/Documents/GitHub/PerMaSC/Maskanalysis/questionnaire/adult randomizer/data_exp_58324-v9_task-tmfe.csv"	106	4	9	"Windows 10"	"Chrome 92.0.4515.159"	"Version7"	20	8	"Female"	"English"	"Born and raised in the UK"	""	"No"	2	1	"Hasn't been a huge issue. Sometimes hard to understand in loud spaces"	1	1	"Everything worked well"	""	""	""	""	""	""	"210725_a176"	"64L"	560.458928930758	"Adults"	"aM"	"vNM"	"L"	"Acoustic Mask"	"No Visual Mask"	"Low Predictability"	"1"	"aMvNM"	96	"4"	20.6666666666667	"Female"	"Version7"
"210725_a185"	15129350	1859.52572517294	1735.56391961739	1	"unsure - rising tone"	"60H"	"grin"	"aM"	"vNM"	"H"	"a"	"aMvNM"	4.21181231419439	2.35228658902145	2.476248394577	1	"15129350_60HaMvNM"	"60H_aM_vNM.mp4"	7	"Version3"	"https://gorilla.sc/uploads/schedule/15129350?filename=60HaMvNMmp4-69-2.weba"	"Block1"	1	58	"/Users/kechun/Documents/GitHub/PerMaSC/Maskanalysis/questionnaire/adult randomizer/data_exp_58324-v9_task-75wy.csv"	46	2	9	"Mac OS 10.15.6"	"Chrome 91.0.4472.106"	"Version3"	26	7	"Female"	"English and another language (bilingual)"	"Born and raised in the UK"	""	"Yes sometimes"	3	1	"Difficulty understanding others who wear face masks depends on the environment (noisy/quiet) as well as the pitch of the person speaking."	2	2	"Everything worked well"	""	""	""	""	""	""	"210725_a185"	"60H"	1735.56391961739	"Adults"	"aM"	"vNM"	"H"	"Acoustic Mask"	"No Visual Mask"	"High Predictability"	"1"	"aMvNM"	58	"2"	26.5833333333333	"Female"	"Version3"
"210725_a185"	15129350	1042.36126576947	903.222219766429	1	"unsure - rising tone"	"96L"	"pile"	"aM"	"vM"	"L"	"a"	"aMvM"	3.15666631416454	2.11430504839507	2.25344409439811	1	"15129350_96LaMvM"	"96L_aM_vM.mp4"	7	"Version3"	"https://gorilla.sc/uploads/schedule/15129350?filename=96LaMvMmp4-74-2.weba"	"Block1"	2	61	"/Users/kechun/Documents/GitHub/PerMaSC/Maskanalysis/questionnaire/adult randomizer/data_exp_58324-v9_task-75wy.csv"	76	3	9	"Mac OS 10.15.6"	"Chrome 91.0.4472.106"	"Version3"	26	7	"Female"	"English and another language (bilingual)"	"Born and raised in the UK"	""	"Yes sometimes"	3	1	"Difficulty understanding others who wear face masks depends on the environment (noisy/quiet) as well as the pitch of the person speaking."	2	2	"Everything worked well"	""	""	""	""	""	""	"210725_a185"	"96L"	903.222219766429	"Adults"	"aM"	"vM"	"L"	"Acoustic Mask"	"Visual Mask"	"Low Predictability"	"1"	"aMvM"	61	"3"	26.5833333333333	"Female"	"Version3"
"210725_a185"	15129350	842.1770933171	710.54356521984	1	"unsure - rising tone"	"98L"	"pine"	"aNM"	"vNM"	"L"	"a"	"aNMvNM"	2.73236898329003	1.89019188997293	2.02182541807019	1	"15129350_98LaNMvNM"	"98L_aNM_vNM.mp4"	7	"Version3"	"https://gorilla.sc/uploads/schedule/15129350?filename=98LaNMvNMmp4-67-2.weba"	"Block1"	1	56	"/Users/kechun/Documents/GitHub/PerMaSC/Maskanalysis/questionnaire/adult randomizer/data_exp_58324-v9_task-75wy.csv"	46	2	9	"Mac OS 10.15.6"	"Chrome 91.0.4472.106"	"Version3"	26	7	"Female"	"English and another language (bilingual)"	"Born and raised in the UK"	""	"Yes sometimes"	3	1	"Difficulty understanding others who wear face masks depends on the environment (noisy/quiet) as well as the pitch of the person speaking."	2	2	"Everything worked well"	""	""	""	""	""	""	"210725_a185"	"98L"	710.54356521984	"Adults"	"aNM"	"vNM"	"L"	"No Acoustic Mask"	"No Visual Mask"	"Low Predictability"	"1"	"aNMvNM"	56	"2"	26.5833333333333	"Female"	"Version3"
"210725_a83"	14570364	2330.32279568321	2154.73173233481	1	"t is made a affricative like ts"	"139L"	"tub"	"aM"	"vNM"	"L"	"a"	"aMvNM"	4.71130777941225	2.38098498372904	2.55657604707744	1	"14570364_139LaMvNM"	"139L_aM_vNM.mp4"	7	"Version7"	"https://gorilla.sc/uploads/schedule/14570364?filename=139LaMvNMmp4-31-2.weba"	"Block1"	3	22	"/Users/kechun/Documents/GitHub/PerMaSC/Maskanalysis/questionnaire/adult randomizer/data_exp_58324-v8_task-tmfe.csv"	16	1	8	"Windows 10"	"Chrome 91.0.4472.164"	"Version7"	23	7	"Female"	"English and another language (bilingual)"	"Raised in the UK from this age (please specify):"	"5"	"Yes sometimes"	2	3	""	2	3	""	""	NA	"There were issues with the voice recordings"	NA	"I think sometimes the video was slow but the audio was working normally so there was a mismatch between lips and sound but this didn't affect me per say."	""	"210725_a83"	"139L"	2154.73173233481	"Adults"	"aM"	"vNM"	"L"	"Acoustic Mask"	"No Visual Mask"	"Low Predictability"	"1"	"aMvNM"	22	"1"	23.5833333333333	"Female"	"Version7"
"210725_a83"	14570364	625.034837089302	489.669800857332	1	"v is not fully voiced "	"140H"	"van"	"aNM"	"vM"	"H"	"a"	"aNMvM"	3.22167307778581	2.59663824069651	2.73200327692848	1	"14570364_140HaNMvM"	"140H_aNM_vM.mp4"	7	"Version7"	"https://gorilla.sc/uploads/schedule/14570364?filename=140HaNMvMmp4-131-2.weba"	"Block1"	4	116	"/Users/kechun/Documents/GitHub/PerMaSC/Maskanalysis/questionnaire/adult randomizer/data_exp_58324-v8_task-tmfe.csv"	106	4	8	"Windows 10"	"Chrome 91.0.4472.164"	"Version7"	23	7	"Female"	"English and another language (bilingual)"	"Raised in the UK from this age (please specify):"	"5"	"Yes sometimes"	2	3	""	2	3	""	""	NA	"There were issues with the voice recordings"	NA	"I think sometimes the video was slow but the audio was working normally so there was a mismatch between lips and sound but this didn't affect me per say."	""	"210725_a83"	"140H"	489.669800857332	"Adults"	"aNM"	"vM"	"H"	"No Acoustic Mask"	"Visual Mask"	"High Predictability"	"1"	"aNMvM"	116	"4"	23.5833333333333	"Female"	"Version7"
"210725_a83"	14570364	1295.27753402378	1150.97084521923	1	"do not know if /b/ is make into a fricative or it was just the noise from the equipment (pre-nasalisation involved)"	"15L"	"bruise"	"aM"	"vM"	"L"	"a"	"aMvM"	3.41955215046336	2.12427461643958	2.26858130524413	1	"14570364_15LaMvM"	"15L_aM_vM.mp4"	7	"Version7"	"https://gorilla.sc/uploads/schedule/14570364?filename=15LaMvMmp4-56-2.weba"	"Block1"	1	45	"/Users/kechun/Documents/GitHub/PerMaSC/Maskanalysis/questionnaire/adult randomizer/data_exp_58324-v8_task-tmfe.csv"	46	2	8	"Windows 10"	"Chrome 91.0.4472.164"	"Version7"	23	7	"Female"	"English and another language (bilingual)"	"Raised in the UK from this age (please specify):"	"5"	"Yes sometimes"	2	3	""	2	3	""	""	NA	"There were issues with the voice recordings"	NA	"I think sometimes the video was slow but the audio was working normally so there was a mismatch between lips and sound but this didn't affect me per say."	""	"210725_a83"	"15L"	1150.97084521923	"Adults"	"aM"	"vM"	"L"	"Acoustic Mask"	"Visual Mask"	"Low Predictability"	"1"	"aMvM"	45	"2"	23.5833333333333	"Female"	"Version7"
"210725_a83"	14570364	1867.90458539609	1665.54514275536	1	"clock"	"21H"	"clerk"	"aM"	"vM"	"H"	"a"	"aMvM"	4.45797938029166	2.59007479489557	2.7924342375363	1	"14570364_21HaMvM"	"21H_aM_vM.mp4"	7	"Version7"	"https://gorilla.sc/uploads/schedule/14570364?filename=21HaMvMmp4-22-2.weba"	"Block1"	3	13	"/Users/kechun/Documents/GitHub/PerMaSC/Maskanalysis/questionnaire/adult randomizer/data_exp_58324-v8_task-tmfe.csv"	16	1	8	"Windows 10"	"Chrome 91.0.4472.164"	"Version7"	23	7	"Female"	"English and another language (bilingual)"	"Raised in the UK from this age (please specify):"	"5"	"Yes sometimes"	2	3	""	2	3	""	""	NA	"There were issues with the voice recordings"	NA	"I think sometimes the video was slow but the audio was working normally so there was a mismatch between lips and sound but this didn't affect me per say."	""	"210725_a83"	"21H"	1665.54514275536	"Adults"	"aM"	"vM"	"H"	"Acoustic Mask"	"Visual Mask"	"High Predictability"	"1"	"aMvM"	13	"1"	23.5833333333333	"Female"	"Version7"
"210725_a83"	14570364	811.105332771791	701.034662837151	1	"pre-nasalisation"	"2H"	"barn"	"aM"	"vNM"	"H"	"a"	"aMvNM"	2.75761560297167	1.94651027019988	2.05658094013452	1	"14570364_2HaMvNM"	"2H_aM_vNM.mp4"	7	"Version7"	"https://gorilla.sc/uploads/schedule/14570364?filename=2HaMvNMmp4-51-2.weba"	"Block1"	1	40	"/Users/kechun/Documents/GitHub/PerMaSC/Maskanalysis/questionnaire/adult randomizer/data_exp_58324-v8_task-tmfe.csv"	46	2	8	"Windows 10"	"Chrome 91.0.4472.164"	"Version7"	23	7	"Female"	"English and another language (bilingual)"	"Raised in the UK from this age (please specify):"	"5"	"Yes sometimes"	2	3	""	2	3	""	""	NA	"There were issues with the voice recordings"	NA	"I think sometimes the video was slow but the audio was working normally so there was a mismatch between lips and sound but this didn't affect me per say."	""	"210725_a83"	"2H"	701.034662837151	"Adults"	"aM"	"vNM"	"H"	"Acoustic Mask"	"No Visual Mask"	"High Predictability"	"1"	"aMvNM"	40	"2"	23.5833333333333	"Female"	"Version7"
"210725_a83"	14570364	1333.99916067281	1182.09986631796	1	"pre-nasalisation"	"58L"	"goal"	"aNM"	"vNM"	"L"	"a"	"aNMvNM"	3.29525272012443	1.96125355945162	2.11315285380647	1	"14570364_58LaNMvNM"	"58L_aNM_vNM.mp4"	7	"Version7"	"https://gorilla.sc/uploads/schedule/14570364?filename=58LaNMvNMmp4-99-2.weba"	"Block1"	2	86	"/Users/kechun/Documents/GitHub/PerMaSC/Maskanalysis/questionnaire/adult randomizer/data_exp_58324-v8_task-tmfe.csv"	76	3	8	"Windows 10"	"Chrome 91.0.4472.164"	"Version7"	23	7	"Female"	"English and another language (bilingual)"	"Raised in the UK from this age (please specify):"	"5"	"Yes sometimes"	2	3	""	2	3	""	""	NA	"There were issues with the voice recordings"	NA	"I think sometimes the video was slow but the audio was working normally so there was a mismatch between lips and sound but this didn't affect me per say."	""	"210725_a83"	"58L"	1182.09986631796	"Adults"	"aNM"	"vNM"	"L"	"No Acoustic Mask"	"No Visual Mask"	"Low Predictability"	"1"	"aNMvNM"	86	"3"	23.5833333333333	"Female"	"Version7"
"210725_a83"	14570364	942.099321671108	671.770925312518	1	"prevoicing"	"72L"	"juice"	"aM"	"vNM"	"L"	"a"	"aMvNM"	3.09644504695378	2.15434572528267	2.42467412164126	1	"14570364_72LaMvNM"	"72L_aM_vNM.mp4"	7	"Version7"	"https://gorilla.sc/uploads/schedule/14570364?filename=72LaMvNMmp4-113-2.weba"	"Block1"	4	98	"/Users/kechun/Documents/GitHub/PerMaSC/Maskanalysis/questionnaire/adult randomizer/data_exp_58324-v8_task-tmfe.csv"	106	4	8	"Windows 10"	"Chrome 91.0.4472.164"	"Version7"	23	7	"Female"	"English and another language (bilingual)"	"Raised in the UK from this age (please specify):"	"5"	"Yes sometimes"	2	3	""	2	3	""	""	NA	"There were issues with the voice recordings"	NA	"I think sometimes the video was slow but the audio was working normally so there was a mismatch between lips and sound but this didn't affect me per say."	""	"210725_a83"	"72L"	671.770925312518	"Adults"	"aM"	"vNM"	"L"	"Acoustic Mask"	"No Visual Mask"	"Low Predictability"	"1"	"aMvNM"	98	"4"	23.5833333333333	"Female"	"Version7"
"210725_a83"	14570364	800.802312110064	520.452222504324	1	"prevoicing"	"73H"	"junk"	"aNM"	"vM"	"H"	"a"	"aNMvM"	3.09316425048216	2.2923619383721	2.57271202797784	1	"14570364_73HaNMvM"	"73H_aNM_vM.mp4"	7	"Version7"	"https://gorilla.sc/uploads/schedule/14570364?filename=73HaNMvMmp4-55-2.weba"	"Block1"	1	44	"/Users/kechun/Documents/GitHub/PerMaSC/Maskanalysis/questionnaire/adult randomizer/data_exp_58324-v8_task-tmfe.csv"	46	2	8	"Windows 10"	"Chrome 91.0.4472.164"	"Version7"	23	7	"Female"	"English and another language (bilingual)"	"Raised in the UK from this age (please specify):"	"5"	"Yes sometimes"	2	3	""	2	3	""	""	NA	"There were issues with the voice recordings"	NA	"I think sometimes the video was slow but the audio was working normally so there was a mismatch between lips and sound but this didn't affect me per say."	""	"210725_a83"	"73H"	520.452222504324	"Adults"	"aNM"	"vM"	"H"	"No Acoustic Mask"	"Visual Mask"	"High Predictability"	"1"	"aNMvM"	44	"2"	23.5833333333333	"Female"	"Version7"
"210725_a90"	14625776	576.30860921978	443.190962160941	1	"'turb'"	"35L"	"curb"	"aM"	"vNM"	"L"	"a"	"aMvNM"	2.80376885856387	2.22746024934409	2.36057789640293	1	"14625776_35LaMvNM"	"35L_aM_vNM.mp4"	7	"Version3"	"https://gorilla.sc/uploads/schedule/14625776?filename=35LaMvNMmp4-125-2.weba"	"Block1"	4	110	"/Users/kechun/Documents/GitHub/PerMaSC/Maskanalysis/questionnaire/adult randomizer/data_exp_58324-v9_task-75wy.csv"	106	4	9	"Mac OS 10.15.7"	"Chrome 91.0.4472.114"	"Version3"	36	0	"Male"	"English"	"Born and raised in the UK"	""	"Yes sometimes"	4	4	"Thinking back on incidents where I have struggled to understand people, there might have been other factors involved such as perspex screens and a large distant between us that compounded the problem."	1	1	"Everything worked well"	""	""	""	""	""	"That was fun. Really intrigued to see the results if they are ever made public."	"210725_a90"	"35L"	443.190962160941	"Adults"	"aM"	"vNM"	"L"	"Acoustic Mask"	"No Visual Mask"	"Low Predictability"	"1"	"aMvNM"	110	"4"	36	"Male"	"Version3"
"210725_a96"	14750145	394.685217012143	59.3194318137331	1	"braft"	"103L"	"raft"	"aM"	"vNM"	"L"	"a"	"aMvNM"	2.62518715430225	2.23050193729011	2.56586772248852	1	"14750145_103LaMvNM"	"103L_aM_vNM.mp4"	7	"Version8"	"https://gorilla.sc/uploads/schedule/14750145?filename=audioFile-51-2.weba"	"Block1"	2	40	"/Users/kechun/Documents/GitHub/PerMaSC/Maskanalysis/questionnaire/adult randomizer/data_exp_58324-v9_task-fbmh.csv"	46	2	9	"Mac OS 10.15.7"	"Chrome 92.0.4515.107"	"Version8"	24	7	"Male"	"English"	"Born and raised in the UK"	""	"Yes sometimes"	3	2	"Generally fine when just face masks are involved, but more difficulty when trying to communicate though glass/plastic screens"	2	3	""	""	""	"There were issues with the voice recordings"	""	"one interference of unexpected phone noises"	""	"210725_a96"	"103L"	59.3194318137331	"Adults"	"aM"	"vNM"	"L"	"Acoustic Mask"	"No Visual Mask"	"Low Predictability"	"1"	"aMvNM"	40	"2"	24.5833333333333	"Male"	"Version8"
"210725_a96"	14750145	254.47172063176	-11.98297633798	1	"self-correction"	"111H"	"seeds"	"aNM"	"vNM"	"H"	"a"	"aNMvNM"	2.19673862553239	1.94226690490063	2.20872160187037	1	"14750145_111HaNMvNM"	"111H_aNM_vNM.mp4"	7	"Version8"	"https://gorilla.sc/uploads/schedule/14750145?filename=audioFile-59-2.weba"	"Block1"	2	48	"/Users/kechun/Documents/GitHub/PerMaSC/Maskanalysis/questionnaire/adult randomizer/data_exp_58324-v9_task-fbmh.csv"	46	2	9	"Mac OS 10.15.7"	"Chrome 92.0.4515.107"	"Version8"	24	7	"Male"	"English"	"Born and raised in the UK"	""	"Yes sometimes"	3	2	"Generally fine when just face masks are involved, but more difficulty when trying to communicate though glass/plastic screens"	2	3	""	""	""	"There were issues with the voice recordings"	""	"one interference of unexpected phone noises"	""	"210725_a96"	"111H"	-11.98297633798	"Adults"	"aNM"	"vNM"	"H"	"No Acoustic Mask"	"No Visual Mask"	"High Predictability"	"1"	"aNMvNM"	48	"2"	24.5833333333333	"Male"	"Version8"
"210725_a96"	14750145	434.967017529857	317.093783066637	1	"grown"	"61L"	"growl"	"aNM"	"vM"	"L"	"a"	"aNMvM"	2.36857933377826	1.9336123162484	2.05148555071162	1	"14750145_61LaNMvM"	"61L_aNM_vM.mp4"	7	"Version8"	"https://gorilla.sc/uploads/schedule/14750145?filename=audioFile-47-2.weba"	"Block1"	2	36	"/Users/kechun/Documents/GitHub/PerMaSC/Maskanalysis/questionnaire/adult randomizer/data_exp_58324-v9_task-fbmh.csv"	46	2	9	"Mac OS 10.15.7"	"Chrome 92.0.4515.107"	"Version8"	24	7	"Male"	"English"	"Born and raised in the UK"	""	"Yes sometimes"	3	2	"Generally fine when just face masks are involved, but more difficulty when trying to communicate though glass/plastic screens"	2	3	""	""	""	"There were issues with the voice recordings"	""	"one interference of unexpected phone noises"	""	"210725_a96"	"61L"	317.093783066637	"Adults"	"aNM"	"vM"	"L"	"No Acoustic Mask"	"Visual Mask"	"Low Predictability"	"1"	"aNMvM"	36	"2"	24.5833333333333	"Male"	"Version8"
"210725_a96"	14750145	445.338959228199	96.4461351540491	1	"voiced 'g'"	"82L"	"lungs"	"aNM"	"vNM"	"L"	"a"	"aNMvNM"	3.14915066396219	2.70381170473399	3.05270452880814	1	"14750145_82LaNMvNM"	"82L_aNM_vNM.mp4"	7	"Version8"	"https://gorilla.sc/uploads/schedule/14750145?filename=audioFile-83-2.weba"	"Block1"	3	70	"/Users/kechun/Documents/GitHub/PerMaSC/Maskanalysis/questionnaire/adult randomizer/data_exp_58324-v9_task-fbmh.csv"	76	3	9	"Mac OS 10.15.7"	"Chrome 92.0.4515.107"	"Version8"	24	7	"Male"	"English"	"Born and raised in the UK"	""	"Yes sometimes"	3	2	"Generally fine when just face masks are involved, but more difficulty when trying to communicate though glass/plastic screens"	2	3	""	""	""	"There were issues with the voice recordings"	""	"one interference of unexpected phone noises"	""	"210725_a96"	"82L"	96.4461351540491	"Adults"	"aNM"	"vNM"	"L"	"No Acoustic Mask"	"No Visual Mask"	"Low Predictability"	"1"	"aNMvNM"	70	"3"	24.5833333333333	"Male"	"Version8"
"210725_c122"	15102120	535.861694570391	362.906833459211	1	"unsure_rising"	"114H"	"silk"	"aM"	"vM"	"H"	"c"	"aMvM"	2.43386264880339	1.898000954233	2.07095581534418	1	"15102120_114HaMvM"	"114H_aM_vM.mp4"	7	"Version4"	"https://gorilla.sc/uploads/schedule/15102120?filename=114HaMvMmp4-17-2.weba"	"Block1"	2	8	"/Users/kechun/Documents/GitHub/PerMaSC/Maskanalysis/questionnaire/child randomizer/data_exp_58325-v9_task-gv44.csv"	16	1	9	"Windows 10"	"Chrome 92.0.4515.131"	"Version4"	11	0	"Female"	"English"	"Born and raised in the UK"	""	"Yes sometimes"	2	2	""	3	2	"Everything worked well"	""	""	""	""	""	"It was quite long"	"210725_c122"	"114H"	362.906833459211	"Children"	"aM"	"vM"	"H"	"Acoustic Mask"	"Visual Mask"	"High Predictability"	"1"	"aMvM"	8	"1"	11	"Female"	"Version4"
"210725_c122"	15102120	1565.3446131742	1448.22327308412	1	"unsure_"	"58L"	"goal"	"aM"	"vNM"	"L"	"c"	"aMvNM"	3.51921530533019	1.95387069215599	2.07099203224607	1	"15102120_58LaMvNM"	"58L_aM_vNM.mp4"	7	"Version4"	"https://gorilla.sc/uploads/schedule/15102120?filename=58LaMvNMmp4-36-2.weba"	"Block1"	2	27	"/Users/kechun/Documents/GitHub/PerMaSC/Maskanalysis/questionnaire/child randomizer/data_exp_58325-v9_task-gv44.csv"	16	1	9	"Windows 10"	"Chrome 92.0.4515.131"	"Version4"	11	0	"Female"	"English"	"Born and raised in the UK"	""	"Yes sometimes"	2	2	""	3	2	"Everything worked well"	""	""	""	""	""	"It was quite long"	"210725_c122"	"58L"	1448.22327308412	"Children"	"aM"	"vNM"	"L"	"Acoustic Mask"	"No Visual Mask"	"Low Predictability"	"1"	"aMvNM"	27	"1"	11	"Female"	"Version4"
"210725_c130"	15367679	2811.71905464473	2583.16141575585	1	"unsure_cab?"	"35L"	"curb"	"aNM"	"vM"	"L"	"c"	"aNMvM"	4.94790061445599	2.13618155981126	2.36473919870014	1	"15367679_35LaNMvM"	"35L_aNM_vM.mp4"	7	"Version4"	"https://gorilla.sc/uploads/schedule/15367679?filename=35LaNMvMmp4-49-2.weba"	"Block1"	4	38	"/Users/kechun/Documents/GitHub/PerMaSC/Maskanalysis/questionnaire/child randomizer/data_exp_58325-v9_task-gv44.csv"	46	2	9	"Windows 10"	"Chrome 92.0.4515.131"	"Version4"	11	3	"Male"	"English"	"Born and raised in the UK"	""	"No"	1	1	""	2	1	"Everything worked well"	""	""	""	""	"none"	"no"	"210725_c130"	"35L"	2583.16141575585	"Children"	"aNM"	"vM"	"L"	"No Acoustic Mask"	"Visual Mask"	"Low Predictability"	"1"	"aNMvM"	38	"2"	11.25	"Male"	"Version4"
"210725_c130"	15367679	698.364699865552	436.691584786192	1	"frot?"	"53L"	"frogs"	"aNM"	"vNM"	"L"	"c"	"aNMvNM"	3.00555796879601	2.30719326893046	2.56886638400982	1	"15367679_53LaNMvNM"	"53L_aNM_vNM.mp4"	7	"Version4"	"https://gorilla.sc/uploads/schedule/15367679?filename=53LaNMvNMmp4-44-2.weba"	"Block1"	4	33	"/Users/kechun/Documents/GitHub/PerMaSC/Maskanalysis/questionnaire/child randomizer/data_exp_58325-v9_task-gv44.csv"	46	2	9	"Windows 10"	"Chrome 92.0.4515.131"	"Version4"	11	3	"Male"	"English"	"Born and raised in the UK"	""	"No"	1	1	""	2	1	"Everything worked well"	""	""	""	""	"none"	"no"	"210725_c130"	"53L"	436.691584786192	"Children"	"aNM"	"vNM"	"L"	"No Acoustic Mask"	"No Visual Mask"	"Low Predictability"	"1"	"aNMvNM"	33	"2"	11.25	"Male"	"Version4"
"210725_c130"	15367679	430.592229813844	341.928917120354	1	"unsure_grown?"	"61H"	"growl"	"aNM"	"vNM"	"H"	"c"	"aNMvNM"	2.57197734006581	2.14138511025197	2.23004842294546	1	"15367679_61HaNMvNM"	"61H_aNM_vNM.mp4"	7	"Version4"	"https://gorilla.sc/uploads/schedule/15367679?filename=61HaNMvNMmp4-27-2.weba"	"Block1"	2	18	"/Users/kechun/Documents/GitHub/PerMaSC/Maskanalysis/questionnaire/child randomizer/data_exp_58325-v9_task-gv44.csv"	16	1	9	"Windows 10"	"Chrome 92.0.4515.131"	"Version4"	11	3	"Male"	"English"	"Born and raised in the UK"	""	"No"	1	1	""	2	1	"Everything worked well"	""	""	""	""	"none"	"no"	"210725_c130"	"61H"	341.928917120354	"Children"	"aNM"	"vNM"	"H"	"No Acoustic Mask"	"No Visual Mask"	"High Predictability"	"1"	"aNMvNM"	18	"1"	11.25	"Male"	"Version4"
"210725_c135"	15571068	253.927099321945	-36.6848506192552	1	"unsure_"	"103H"	"raft"	"aNM"	"vM"	"H"	"c"	"aNMvM"	3.12953526414335	2.87560816482141	3.16622011476261	1	"15571068_103HaNMvM"	"103H_aNM_vM.mp4"	7	"Version5"	"https://gorilla.sc/uploads/schedule/15571068?filename=103HaNMvMmp4-86-2.weba"	"Block1"	2	73	"/Users/kechun/Documents/GitHub/PerMaSC/Maskanalysis/questionnaire/child randomizer/data_exp_58325-v9_task-jhw4.csv"	76	3	9	"Windows 10"	"Chrome 92.0.4515.159"	"Version5"	10	0	"Male"	"English"	"Born and raised in the UK"	""	"Yes sometimes"	3	4	""	2	2	"Everything worked well"	""	""	""	""	""	""	"210725_c135"	"103H"	-36.6848506192552	"Children"	"aNM"	"vM"	"H"	"No Acoustic Mask"	"Visual Mask"	"High Predictability"	"1"	"aNMvM"	73	"3"	10	"Male"	"Version5"
"210725_c135"	15571068	303.225367793172	-24.9222866357282	1	"vanpt"	"104H"	"rent"	"aM"	"vM"	"H"	"c"	"aMvM"	2.52157399152213	2.21834862372896	2.54649627815786	1	"15571068_104HaMvM"	"104H_aM_vM.mp4"	7	"Version5"	"https://gorilla.sc/uploads/schedule/15571068?filename=104HaMvMmp4-42-2.weba"	"Block1"	3	31	"/Users/kechun/Documents/GitHub/PerMaSC/Maskanalysis/questionnaire/child randomizer/data_exp_58325-v9_task-jhw4.csv"	46	2	9	"Windows 10"	"Chrome 92.0.4515.159"	"Version5"	10	0	"Male"	"English"	"Born and raised in the UK"	""	"Yes sometimes"	3	4	""	2	2	"Everything worked well"	""	""	""	""	""	""	"210725_c135"	"104H"	-24.9222866357282	"Children"	"aM"	"vM"	"H"	"Acoustic Mask"	"Visual Mask"	"High Predictability"	"1"	"aMvM"	31	"2"	10	"Male"	"Version5"
"210725_c135"	15571068	1124.99364969998	990.890953621633	1	"unsure_vim"	"105L"	"rim"	"aNM"	"vNM"	"L"	"c"	"aNMvNM"	3.58362569131251	2.45863204161253	2.59273473769088	1	"15571068_105LaNMvNM"	"105L_aNM_vNM.mp4"	7	"Version5"	"https://gorilla.sc/uploads/schedule/15571068?filename=105LaNMvNMmp4-23-2.weba"	"Block1"	4	14	"/Users/kechun/Documents/GitHub/PerMaSC/Maskanalysis/questionnaire/child randomizer/data_exp_58325-v9_task-jhw4.csv"	16	1	9	"Windows 10"	"Chrome 92.0.4515.159"	"Version5"	10	0	"Male"	"English"	"Born and raised in the UK"	""	"Yes sometimes"	3	4	""	2	2	"Everything worked well"	""	""	""	""	""	""	"210725_c135"	"105L"	990.890953621633	"Children"	"aNM"	"vNM"	"L"	"No Acoustic Mask"	"No Visual Mask"	"Low Predictability"	"1"	"aNMvNM"	14	"1"	10	"Male"	"Version5"
"210725_c135"	15571068	520.267791579908	473.899964531558	1	"vow"	"108H"	"row"	"aNM"	"vM"	"H"	"c"	"aNMvM"	3.02083554151689	2.50056774993698	2.54693557698533	1	"15571068_108HaNMvM"	"108H_aNM_vM.mp4"	7	"Version5"	"https://gorilla.sc/uploads/schedule/15571068?filename=108HaNMvMmp4-46-2.weba"	"Block1"	3	35	"/Users/kechun/Documents/GitHub/PerMaSC/Maskanalysis/questionnaire/child randomizer/data_exp_58325-v9_task-jhw4.csv"	46	2	9	"Windows 10"	"Chrome 92.0.4515.159"	"Version5"	10	0	"Male"	"English"	"Born and raised in the UK"	""	"Yes sometimes"	3	4	""	2	2	"Everything worked well"	""	""	""	""	""	""	"210725_c135"	"108H"	473.899964531558	"Children"	"aNM"	"vM"	"H"	"No Acoustic Mask"	"Visual Mask"	"High Predictability"	"1"	"aNMvM"	35	"2"	10	"Male"	"Version5"
"210725_c135"	15571068	347.493075287415	143.022241954124	1	"unsure_thlout?"	"133H"	"throat"	"aNM"	"vM"	"H"	"c"	"aNMvM"	2.46017664022511	2.1126835649377	2.31715439827099	1	"15571068_133HaNMvM"	"133H_aNM_vM.mp4"	7	"Version5"	"https://gorilla.sc/uploads/schedule/15571068?filename=133HaNMvMmp4-114-2.weba"	"Block1"	1	99	"/Users/kechun/Documents/GitHub/PerMaSC/Maskanalysis/questionnaire/child randomizer/data_exp_58325-v9_task-jhw4.csv"	106	4	9	"Windows 10"	"Chrome 92.0.4515.159"	"Version5"	10	0	"Male"	"English"	"Born and raised in the UK"	""	"Yes sometimes"	3	4	""	2	2	"Everything worked well"	""	""	""	""	""	""	"210725_c135"	"133H"	143.022241954124	"Children"	"aNM"	"vM"	"H"	"No Acoustic Mask"	"Visual Mask"	"High Predictability"	"1"	"aNMvM"	99	"4"	10	"Male"	"Version5"
"210725_c135"	15571068	18.6758943882501	-106.15675153099	1	"unsure_overlap in the onset"	"136L"	"trail"	"aNM"	"vNM"	"L"	"c"	"aNMvNM"	1.8805717436137	1.86189584922545	1.98672849514469	1	"15571068_136LaNMvNM"	"136L_aNM_vNM.mp4"	7	"Version5"	"https://gorilla.sc/uploads/schedule/15571068?filename=136LaNMvNMmp4-62-2.weba"	"Block1"	3	51	"/Users/kechun/Documents/GitHub/PerMaSC/Maskanalysis/questionnaire/child randomizer/data_exp_58325-v9_task-jhw4.csv"	46	2	9	"Windows 10"	"Chrome 92.0.4515.159"	"Version5"	10	0	"Male"	"English"	"Born and raised in the UK"	""	"Yes sometimes"	3	4	""	2	2	"Everything worked well"	""	""	""	""	""	""	"210725_c135"	"136L"	-106.15675153099	"Children"	"aNM"	"vNM"	"L"	"No Acoustic Mask"	"No Visual Mask"	"Low Predictability"	"1"	"aNMvNM"	51	"2"	10	"Male"	"Version5"
"210725_c135"	15571068	1787.01358715382	1706.76854747128	1	"unsure_boom?"	"14L"	"broom"	"aM"	"vNM"	"L"	"c"	"aMvNM"	4.33368725244128	2.54667366528746	2.62691870497	1	"15571068_14LaMvNM"	"14L_aM_vNM.mp4"	7	"Version5"	"https://gorilla.sc/uploads/schedule/15571068?filename=14LaMvNMmp4-26-2.weba"	"Block1"	4	17	"/Users/kechun/Documents/GitHub/PerMaSC/Maskanalysis/questionnaire/child randomizer/data_exp_58325-v9_task-jhw4.csv"	16	1	9	"Windows 10"	"Chrome 92.0.4515.159"	"Version5"	10	0	"Male"	"English"	"Born and raised in the UK"	""	"Yes sometimes"	3	4	""	2	2	"Everything worked well"	""	""	""	""	""	""	"210725_c135"	"14L"	1706.76854747128	"Children"	"aM"	"vNM"	"L"	"Acoustic Mask"	"No Visual Mask"	"Low Predictability"	"1"	"aMvNM"	17	"1"	10	"Male"	"Version5"
"210725_c135"	15571068	392.479647528062	184.564572296582	1	"unsure_buise"	"15H"	"bruise"	"aNM"	"vNM"	"H"	"c"	"aNMvNM"	2.6253689099276	2.23288926239954	2.44080433763102	1	"15571068_15HaNMvNM"	"15H_aNM_vNM.mp4"	7	"Version5"	"https://gorilla.sc/uploads/schedule/15571068?filename=15HaNMvNMmp4-121-2.weba"	"Block1"	1	106	"/Users/kechun/Documents/GitHub/PerMaSC/Maskanalysis/questionnaire/child randomizer/data_exp_58325-v9_task-jhw4.csv"	106	4	9	"Windows 10"	"Chrome 92.0.4515.159"	"Version5"	10	0	"Male"	"English"	"Born and raised in the UK"	""	"Yes sometimes"	3	4	""	2	2	"Everything worked well"	""	""	""	""	""	""	"210725_c135"	"15H"	184.564572296582	"Children"	"aNM"	"vNM"	"H"	"No Acoustic Mask"	"No Visual Mask"	"High Predictability"	"1"	"aNMvNM"	106	"4"	10	"Male"	"Version5"
"210725_c135"	15571068	2022.75711254765	1683.65520832441	1	"unsure_fogs"	"53L"	"frogs"	"aM"	"vNM"	"L"	"c"	"aMvNM"	3.85557498926545	1.8328178767178	2.17191978094104	1	"15571068_53LaMvNM"	"53L_aM_vNM.mp4"	7	"Version5"	"https://gorilla.sc/uploads/schedule/15571068?filename=53LaMvNMmp4-16-2.weba"	"Block1"	4	7	"/Users/kechun/Documents/GitHub/PerMaSC/Maskanalysis/questionnaire/child randomizer/data_exp_58325-v9_task-jhw4.csv"	16	1	9	"Windows 10"	"Chrome 92.0.4515.159"	"Version5"	10	0	"Male"	"English"	"Born and raised in the UK"	""	"Yes sometimes"	3	4	""	2	2	"Everything worked well"	""	""	""	""	""	""	"210725_c135"	"53L"	1683.65520832441	"Children"	"aM"	"vNM"	"L"	"Acoustic Mask"	"No Visual Mask"	"Low Predictability"	"1"	"aMvNM"	7	"1"	10	"Male"	"Version5"
"210725_c135"	15571068	523.32996520391	399.36815964836	1	"unsure_guam?"	"60H"	"grin"	"aM"	"vM"	"H"	"c"	"aMvM"	2.87561655422536	2.35228658902145	2.476248394577	1	"15571068_60HaMvM"	"60H_aM_vM.mp4"	7	"Version5"	"https://gorilla.sc/uploads/schedule/15571068?filename=60HaMvMmp4-127-2.weba"	"Block1"	1	112	"/Users/kechun/Documents/GitHub/PerMaSC/Maskanalysis/questionnaire/child randomizer/data_exp_58325-v9_task-jhw4.csv"	106	4	9	"Windows 10"	"Chrome 92.0.4515.159"	"Version5"	10	0	"Male"	"English"	"Born and raised in the UK"	""	"Yes sometimes"	3	4	""	2	2	"Everything worked well"	""	""	""	""	""	""	"210725_c135"	"60H"	399.36815964836	"Children"	"aM"	"vM"	"H"	"Acoustic Mask"	"Visual Mask"	"High Predictability"	"1"	"aMvM"	112	"4"	10	"Male"	"Version5"
"210725_c76"	14745223	1079.74789447957	907.085647004972	1	"unsure_I think the onset is an afficative rather than a plosive"	"139L"	"tub"	"aNM"	"vNM"	"L"	"c"	"aNMvNM"	3.44934045314943	2.36959255866986	2.54225480614446	1	"14745223_139LaNMvNM"	"139L_aNM_vNM.mp4"	7	"Version2"	"https://gorilla.sc/uploads/schedule/14745223?filename=audioFile-124-2.weba"	"Block1"	3	109	"/Users/kechun/Documents/GitHub/PerMaSC/Maskanalysis/questionnaire/child randomizer/data_exp_58325-v9_task-tucf.csv"	106	4	9	"Mac OS 10.13.6"	"Chrome 91.0.4472.101"	"Version2"	10	5	"Female"	"English"	"Born and raised in the UK"	""	"No"	2	2	""	2	2	"Everything worked well"	""	""	""	""	""	""	"210725_c76"	"139L"	907.085647004972	"Children"	"aNM"	"vNM"	"L"	"No Acoustic Mask"	"No Visual Mask"	"Low Predictability"	"1"	"aNMvNM"	109	"4"	10.4166666666667	"Female"	"Version2"
"210725_c81"	14745923	1256.89145369324	1177.35127512181	1	"pre-nasaling"	"3H"	"bay"	"aM"	"vM"	"H"	"c"	"aMvM"	3.22989009601667	1.97299864232343	2.05253882089486	1	"14745923_3HaMvM"	"3H_aM_vM.mp4"	7	"Version8"	"https://gorilla.sc/uploads/schedule/14745923?filename=audioFile-78-2.weba"	"Block1"	2	65	"/Users/kechun/Documents/GitHub/PerMaSC/Maskanalysis/questionnaire/child randomizer/data_exp_58325-v9_task-u5lv.csv"	76	3	9	"Mac OS 10.13.6"	"Chrome 91.0.4472.101"	"Version8"	11	11	"Male"	"English"	"Born and raised in the UK"	""	"No"	2	1	""	2	2	"Everything worked well"	""	""	""	""	""	""	"210725_c81"	"3H"	1177.35127512181	"Children"	"aM"	"vM"	"H"	"Acoustic Mask"	"Visual Mask"	"High Predictability"	"1"	"aMvM"	65	"3"	11.9166666666667	"Male"	"Version8"
"210725_c81"	14745923	1412.35927048468	1097.60495209064	1	"pre-nasaling"	"40H"	"ditch"	"aM"	"vM"	"H"	"c"	"aMvM"	3.22545809502409	1.81309882453942	2.12785314293345	1	"14745923_40HaMvM"	"40H_aM_vM.mp4"	7	"Version8"	"https://gorilla.sc/uploads/schedule/14745923?filename=audioFile-97-2.weba"	"Block1"	2	84	"/Users/kechun/Documents/GitHub/PerMaSC/Maskanalysis/questionnaire/child randomizer/data_exp_58325-v9_task-u5lv.csv"	76	3	9	"Mac OS 10.13.6"	"Chrome 91.0.4472.101"	"Version8"	11	11	"Male"	"English"	"Born and raised in the UK"	""	"No"	2	1	""	2	2	"Everything worked well"	""	""	""	""	""	""	"210725_c81"	"40H"	1097.60495209064	"Children"	"aM"	"vM"	"H"	"Acoustic Mask"	"Visual Mask"	"High Predictability"	"1"	"aMvM"	84	"3"	11.9166666666667	"Male"	"Version8"
"210725_c81"	14745923	1971.99850081776	1828.64433415111	1	"pre-nasaling"	"46H"	"drug"	"aM"	"vM"	"H"	"c"	"aMvM"	4.26052716616263	2.28852866534487	2.43188283201152	1	"14745923_46HaMvM"	"46H_aM_vM.mp4"	7	"Version8"	"https://gorilla.sc/uploads/schedule/14745923?filename=audioFile-35-2.weba"	"Block1"	3	26	"/Users/kechun/Documents/GitHub/PerMaSC/Maskanalysis/questionnaire/child randomizer/data_exp_58325-v9_task-u5lv.csv"	16	1	9	"Mac OS 10.13.6"	"Chrome 91.0.4472.101"	"Version8"	11	11	"Male"	"English"	"Born and raised in the UK"	""	"No"	2	1	""	2	2	"Everything worked well"	""	""	""	""	""	""	"210725_c81"	"46H"	1828.64433415111	"Children"	"aM"	"vM"	"H"	"Acoustic Mask"	"Visual Mask"	"High Predictability"	"1"	"aMvM"	26	"1"	11.9166666666667	"Male"	"Version8"
"210725_c81"	14745923	1106.75613132315	984.607417805473	1	"pre-nasaling"	"47L"	"drum"	"aNM"	"vNM"	"L"	"c"	"aNMvNM"	3.08519078343738	1.97843465211423	2.10058336563191	1	"14745923_47LaNMvNM"	"47L_aNM_vNM.mp4"	7	"Version8"	"https://gorilla.sc/uploads/schedule/14745923?filename=audioFile-71-2.weba"	"Block1"	4	60	"/Users/kechun/Documents/GitHub/PerMaSC/Maskanalysis/questionnaire/child randomizer/data_exp_58325-v9_task-u5lv.csv"	46	2	9	"Mac OS 10.13.6"	"Chrome 91.0.4472.101"	"Version8"	11	11	"Male"	"English"	"Born and raised in the UK"	""	"No"	2	1	""	2	2	"Everything worked well"	""	""	""	""	""	""	"210725_c81"	"47L"	984.607417805473	"Children"	"aNM"	"vNM"	"L"	"No Acoustic Mask"	"No Visual Mask"	"Low Predictability"	"1"	"aNMvNM"	60	"2"	11.9166666666667	"Male"	"Version8"
"210725_c81"	14745923	1634.27210445539	1479.51875196495	1	"pre-nasaling"	"58H"	"goal"	"aM"	"vNM"	"H"	"c"	"aMvNM"	3.73777172555808	2.10349962110269	2.25825297359313	1	"14745923_58HaMvNM"	"58H_aM_vNM.mp4"	7	"Version8"	"https://gorilla.sc/uploads/schedule/14745923?filename=audioFile-88-2.weba"	"Block1"	2	75	"/Users/kechun/Documents/GitHub/PerMaSC/Maskanalysis/questionnaire/child randomizer/data_exp_58325-v9_task-u5lv.csv"	76	3	9	"Mac OS 10.13.6"	"Chrome 91.0.4472.101"	"Version8"	11	11	"Male"	"English"	"Born and raised in the UK"	""	"No"	2	1	""	2	2	"Everything worked well"	""	""	""	""	""	""	"210725_c81"	"58H"	1479.51875196495	"Children"	"aM"	"vNM"	"H"	"Acoustic Mask"	"No Visual Mask"	"High Predictability"	"1"	"aMvNM"	75	"3"	11.9166666666667	"Male"	"Version8"
"210725_c81"	14745923	1332.06343100008	999.773103619158	1	"pre-nasaling"	"73L"	"junk"	"aNM"	"vM"	"L"	"c"	"aNMvM"	3.42797744507371	2.09591401407363	2.42820434145455	1	"14745923_73LaNMvM"	"73L_aNM_vM.mp4"	7	"Version8"	"https://gorilla.sc/uploads/schedule/14745923?filename=audioFile-110-2.weba"	"Block1"	1	95	"/Users/kechun/Documents/GitHub/PerMaSC/Maskanalysis/questionnaire/child randomizer/data_exp_58325-v9_task-u5lv.csv"	106	4	9	"Mac OS 10.13.6"	"Chrome 91.0.4472.101"	"Version8"	11	11	"Male"	"English"	"Born and raised in the UK"	""	"No"	2	1	""	2	2	"Everything worked well"	""	""	""	""	""	""	"210725_c81"	"73L"	999.773103619158	"Children"	"aNM"	"vM"	"L"	"No Acoustic Mask"	"Visual Mask"	"Low Predictability"	"1"	"aNMvM"	95	"4"	11.9166666666667	"Male"	"Version8"
"210725_c81"	14745923	1361.57401062008	1012.68118654593	1	"voiced 'g' in the coda"	"82L"	"lungs"	"aNM"	"vNM"	"L"	"c"	"aNMvNM"	4.06538571535407	2.70381170473399	3.05270452880814	1	"14745923_82LaNMvNM"	"82L_aNM_vNM.mp4"	7	"Version8"	"https://gorilla.sc/uploads/schedule/14745923?filename=audioFile-33-2.weba"	"Block1"	3	24	"/Users/kechun/Documents/GitHub/PerMaSC/Maskanalysis/questionnaire/child randomizer/data_exp_58325-v9_task-u5lv.csv"	16	1	9	"Mac OS 10.13.6"	"Chrome 91.0.4472.101"	"Version8"	11	11	"Male"	"English"	"Born and raised in the UK"	""	"No"	2	1	""	2	2	"Everything worked well"	""	""	""	""	""	""	"210725_c81"	"82L"	1012.68118654593	"Children"	"aNM"	"vNM"	"L"	"No Acoustic Mask"	"No Visual Mask"	"Low Predictability"	"1"	"aNMvNM"	24	"1"	11.9166666666667	"Male"	"Version8"
"210725_c84"	14993977	968.929516738442	704.094640195232	1	"unreleased coda"	"23L"	"clock"	"aNM"	"vM"	"L"	"c"	"aNMvM"	3.20162824848988	2.23269873175144	2.49753360829465	1	"14993977_23LaNMvM"	"23L_aNM_vM.mp4"	7	"Version1"	"https://gorilla.sc/uploads/schedule/14993977?filename=23LaNMvMmp4-71-2.weba"	"Block1"	2	60	"/Users/kechun/Documents/GitHub/PerMaSC/Maskanalysis/questionnaire/child randomizer/data_exp_58325-v9_task-l3g6.csv"	46	2	9	"Mac OS 10.15.7"	"Chrome 92.0.4515.131"	"Version1"	10	9	"Female"	"English"	"Born and raised in the UK"	""	"Yes sometimes"	3	2	""	2	2	"Everything worked well"	""	""	""	""	""	""	"210725_c84"	"23L"	704.094640195232	"Children"	"aNM"	"vM"	"L"	"No Acoustic Mask"	"Visual Mask"	"Low Predictability"	"1"	"aNMvM"	60	"2"	10.75	"Female"	"Version1"
"210725_c86"	14742950	1383.63891204041	1195.62861510555	1	"she sounded unsure"	"114L"	"silk"	"aM"	"vM"	"L"	"c"	"aMvM"	3.3012985548818	1.91765964284139	2.10566993977625	1	"14742950_114LaMvM"	"114L_aM_vM.mp4"	7	"Version7"	"https://gorilla.sc/uploads/schedule/14742950?filename=audioFile-68-2.weba"	"Block1"	2	57	"/Users/kechun/Documents/GitHub/PerMaSC/Maskanalysis/questionnaire/child randomizer/data_exp_58325-v9_task-73fk.csv"	46	2	9	"Chromium OS 13904.97.0"	"Chrome 91.0.4472.167"	"Version7"	11	0	"Female"	"English"	"Born and raised in the UK"	""	"Yes sometimes"	2	3	""	2	3	"Everything worked well"	""	""	""	""	""	""	"210725_c86"	"114L"	1195.62861510555	"Children"	"aM"	"vM"	"L"	"Acoustic Mask"	"Visual Mask"	"Low Predictability"	"1"	"aMvM"	57	"2"	11	"Female"	"Version7"
"210725_c86"	14742950	1028.61003773085	905.740884505055	1	"sounded unsure"	"128L"	"swan"	"aNM"	"vNM"	"L"	"c"	"aNMvNM"	2.89711756262187	1.86850752489102	1.99137667811681	1	"14742950_128LaNMvNM"	"128L_aNM_vNM.mp4"	7	"Version7"	"https://gorilla.sc/uploads/schedule/14742950?filename=audioFile-59-2.weba"	"Block1"	2	48	"/Users/kechun/Documents/GitHub/PerMaSC/Maskanalysis/questionnaire/child randomizer/data_exp_58325-v9_task-73fk.csv"	46	2	9	"Chromium OS 13904.97.0"	"Chrome 91.0.4472.167"	"Version7"	11	0	"Female"	"English"	"Born and raised in the UK"	""	"Yes sometimes"	2	3	""	2	3	"Everything worked well"	""	""	""	""	""	""	"210725_c86"	"128L"	905.740884505055	"Children"	"aNM"	"vNM"	"L"	"No Acoustic Mask"	"No Visual Mask"	"Low Predictability"	"1"	"aNMvNM"	48	"2"	11	"Female"	"Version7"
"210725_c86"	14742950	2094.40797543698	1883.45637014777	1	"sounded unsure"	"37L"	"deck"	"aM"	"vM"	"L"	"c"	"aMvM"	4.26396140324505	2.16955342780807	2.38050503309728	1	"14742950_37LaMvM"	"37L_aM_vM.mp4"	7	"Version7"	"https://gorilla.sc/uploads/schedule/14742950?filename=audioFile-55-2.weba"	"Block1"	2	44	"/Users/kechun/Documents/GitHub/PerMaSC/Maskanalysis/questionnaire/child randomizer/data_exp_58325-v9_task-73fk.csv"	46	2	9	"Chromium OS 13904.97.0"	"Chrome 91.0.4472.167"	"Version7"	11	0	"Female"	"English"	"Born and raised in the UK"	""	"Yes sometimes"	2	3	""	2	3	"Everything worked well"	""	""	""	""	""	""	"210725_c86"	"37L"	1883.45637014777	"Children"	"aM"	"vM"	"L"	"Acoustic Mask"	"Visual Mask"	"Low Predictability"	"1"	"aMvM"	44	"2"	11	"Female"	"Version7"
"210725_c86"	14742950	3840.17941158154	3776.66527467673	1	"sounded unsure"	"41L"	"dive"	"aM"	"vM"	"L"	"c"	"aMvM"	6.4075501455911	2.56737073400956	2.63088487091437	1	"14742950_41LaMvM"	"41L_aM_vM.mp4"	7	"Version7"	"https://gorilla.sc/uploads/schedule/14742950?filename=audioFile-22-2.weba"	"Block1"	3	13	"/Users/kechun/Documents/GitHub/PerMaSC/Maskanalysis/questionnaire/child randomizer/data_exp_58325-v9_task-73fk.csv"	16	1	9	"Chromium OS 13904.97.0"	"Chrome 91.0.4472.167"	"Version7"	11	0	"Female"	"English"	"Born and raised in the UK"	""	"Yes sometimes"	2	3	""	2	3	"Everything worked well"	""	""	""	""	""	""	"210725_c86"	"41L"	3776.66527467673	"Children"	"aM"	"vM"	"L"	"Acoustic Mask"	"Visual Mask"	"Low Predictability"	"1"	"aMvM"	13	"1"	11	"Female"	"Version7"
"210725_c86"	14742950	1379.66789413659	1254.78495011303	1	"but correct herself later to a wrong answer"	"5L"	"beam"	"aNM"	"vNM"	"L"	"c"	"aNMvNM"	3.52322360690877	2.14355571277218	2.26843865679574	1	"14742950_5LaNMvNM"	"5L_aNM_vNM.mp4"	7	"Version7"	"https://gorilla.sc/uploads/schedule/14742950?filename=audioFile-130-2.weba"	"Block1"	4	115	"/Users/kechun/Documents/GitHub/PerMaSC/Maskanalysis/questionnaire/child randomizer/data_exp_58325-v9_task-73fk.csv"	106	4	9	"Chromium OS 13904.97.0"	"Chrome 91.0.4472.167"	"Version7"	11	0	"Female"	"English"	"Born and raised in the UK"	""	"Yes sometimes"	2	3	""	2	3	"Everything worked well"	""	""	""	""	""	""	"210725_c86"	"5L"	1254.78495011303	"Children"	"aNM"	"vNM"	"L"	"No Acoustic Mask"	"No Visual Mask"	"Low Predictability"	"1"	"aNMvNM"	115	"4"	11	"Female"	"Version7"
"210725_c86"	14742950	699.871108369504	394.523191702834	1	"unsure_"	"66H"	"hint"	"aM"	"vM"	"H"	"c"	"aMvM"	2.95689419673334	2.25702308836384	2.56237100503051	1	"14742950_66HaMvM"	"66H_aM_vM.mp4"	7	"Version7"	"https://gorilla.sc/uploads/schedule/14742950?filename=audioFile-109-2.weba"	"Block1"	4	94	"/Users/kechun/Documents/GitHub/PerMaSC/Maskanalysis/questionnaire/child randomizer/data_exp_58325-v9_task-73fk.csv"	106	4	9	"Chromium OS 13904.97.0"	"Chrome 91.0.4472.167"	"Version7"	11	0	"Female"	"English"	"Born and raised in the UK"	""	"Yes sometimes"	2	3	""	2	3	"Everything worked well"	""	""	""	""	""	""	"210725_c86"	"66H"	394.523191702834	"Children"	"aM"	"vM"	"H"	"Acoustic Mask"	"Visual Mask"	"High Predictability"	"1"	"aMvM"	94	"4"	11	"Female"	"Version7"
"210725_c86"	14742950	1269.4819647574	927.660784201919	1	"unsure"	"82L"	"lungs"	"aM"	"vM"	"L"	"c"	"aMvM"	3.90470620975674	2.63522424499934	2.97704542555482	1	"14742950_82LaMvM"	"82L_aM_vM.mp4"	7	"Version7"	"https://gorilla.sc/uploads/schedule/14742950?filename=audioFile-29-2.weba"	"Block1"	3	20	"/Users/kechun/Documents/GitHub/PerMaSC/Maskanalysis/questionnaire/child randomizer/data_exp_58325-v9_task-73fk.csv"	16	1	9	"Chromium OS 13904.97.0"	"Chrome 91.0.4472.167"	"Version7"	11	0	"Female"	"English"	"Born and raised in the UK"	""	"Yes sometimes"	2	3	""	2	3	"Everything worked well"	""	""	""	""	""	""	"210725_c86"	"82L"	927.660784201919	"Children"	"aM"	"vM"	"L"	"Acoustic Mask"	"Visual Mask"	"Low Predictability"	"1"	"aMvM"	20	"1"	11	"Female"	"Version7"
"210725_c94"	14889970	1482.25189791705	1270.27960335687	1	"geck?"	"37H"	"deck"	"aNM"	"vM"	"H"	"c"	"aNMvM"	3.04513490580024	1.56288300788319	1.77485530244337	1	"14889970_37HaNMvM"	"37H_aNM_vM.mp4"	7	"Version3"	"https://gorilla.sc/uploads/schedule/14889970?filename=37HaNMvMmp4-75-2.weba"	"Block1"	2	62	"/Users/kechun/Documents/GitHub/PerMaSC/Maskanalysis/questionnaire/child randomizer/data_exp_58325-v9_task-f475.csv"	76	3	9	"Mac OS 10.14.6"	"Chrome 92.0.4515.107"	"Version3"	8	5	"Female"	"English"	"Born and raised in the UK"	""	"No"	2	1	""	2	2	"Everything worked well"	""	""	""	""	""	""	"210725_c94"	"37H"	1270.27960335687	"Children"	"aNM"	"vM"	"H"	"No Acoustic Mask"	"Visual Mask"	"High Predictability"	"1"	"aNMvM"	62	"3"	8.41666666666667	"Female"	"Version3"
"210725_c94"	14889970	1723.51417152332	1579.04601676142	1	"bean"	"5H"	"beam"	"aM"	"vM"	"H"	"c"	"aMvM"	4.00973463058102	2.2862204590577	2.4306886138196	1	"14889970_5HaMvM"	"5H_aM_vM.mp4"	7	"Version3"	"https://gorilla.sc/uploads/schedule/14889970?filename=5HaMvMmp4-61-2.weba"	"Block1"	4	50	"/Users/kechun/Documents/GitHub/PerMaSC/Maskanalysis/questionnaire/child randomizer/data_exp_58325-v9_task-f475.csv"	46	2	9	"Mac OS 10.14.6"	"Chrome 92.0.4515.107"	"Version3"	8	5	"Female"	"English"	"Born and raised in the UK"	""	"No"	2	1	""	2	2	"Everything worked well"	""	""	""	""	""	""	"210725_c94"	"5H"	1579.04601676142	"Children"	"aM"	"vM"	"H"	"Acoustic Mask"	"Visual Mask"	"High Predictability"	"1"	"aMvM"	50	"2"	8.41666666666667	"Female"	"Version3"
"210725_c94"	14889970	1456.94383041484	1293.83340215259	1	"pale?"	"97L"	"pill"	"aNM"	"vM"	"L"	"c"	"aNMvM"	3.74500822743005	2.28806439701521	2.45117482527746	1	"14889970_97LaNMvM"	"97L_aNM_vM.mp4"	7	"Version3"	"https://gorilla.sc/uploads/schedule/14889970?filename=97LaNMvMmp4-114-2.weba"	"Block1"	3	99	"/Users/kechun/Documents/GitHub/PerMaSC/Maskanalysis/questionnaire/child randomizer/data_exp_58325-v9_task-f475.csv"	106	4	9	"Mac OS 10.14.6"	"Chrome 92.0.4515.107"	"Version3"	8	5	"Female"	"English"	"Born and raised in the UK"	""	"No"	2	1	""	2	2	"Everything worked well"	""	""	""	""	""	""	"210725_c94"	"97L"	1293.83340215259	"Children"	"aNM"	"vM"	"L"	"No Acoustic Mask"	"Visual Mask"	"Low Predictability"	"1"	"aNMvM"	99	"4"	8.41666666666667	"Female"	"Version3"
"210823_c177"	15326180	715.176520421066	591.480210897286	1	"Not very sure about the onset time. There was a russling sound of metals before."	"140L"	"van"	"aNM"	"vNM"	"L"	"c"	"aNMvNM"	3.30947033075913	2.59429381033806	2.71799011986184	1	"15326180_140LaNMvNM"	"140L_aNM_vNM.mp4"	7	"Version5"	"https://gorilla.sc/uploads/schedule/15326180?filename=140LaNMvNMmp4-76-2.weba"	"Block1"	4	63	"/Users/kechun/Documents/GitHub/PerMaSC/Maskanalysis/questionnaire/child randomizer/data_exp_58325-v9_task-jhw4.csv"	76	3	9	"Windows 10"	"Chrome 92.0.4515.159"	"Version5"	11	11	"Male"	"English and another language (bilingual)"	"Raised in the UK from this age (please specify):"	"5 Months"	"Yes sometimes"	2	4	"Not very problamatic"	3	1	"Everything worked well"	""	""	""	""	"No"	"No"	"210823_c177"	"140L"	591.480210897286	"Children"	"aNM"	"vNM"	"L"	"No Acoustic Mask"	"No Visual Mask"	"Low Predictability"	"1"	"aNMvNM"	63	"3"	11.9166666666667	"Male"	"Version5"
"210823_c177"	15326180	602.658335044237	522.413295361697	1	"Pre-nasaling"	"14L"	"broom"	"aM"	"vNM"	"L"	"c"	"aMvNM"	3.1493320003317	2.54667366528746	2.62691870497	1	"15326180_14LaMvNM"	"14L_aM_vNM.mp4"	7	"Version5"	"https://gorilla.sc/uploads/schedule/15326180?filename=14LaMvNMmp4-81-2.weba"	"Block1"	4	68	"/Users/kechun/Documents/GitHub/PerMaSC/Maskanalysis/questionnaire/child randomizer/data_exp_58325-v9_task-jhw4.csv"	76	3	9	"Windows 10"	"Chrome 92.0.4515.159"	"Version5"	11	11	"Male"	"English and another language (bilingual)"	"Raised in the UK from this age (please specify):"	"5 Months"	"Yes sometimes"	2	4	"Not very problamatic"	3	1	"Everything worked well"	""	""	""	""	"No"	"No"	"210823_c177"	"14L"	522.413295361697	"Children"	"aM"	"vNM"	"L"	"Acoustic Mask"	"No Visual Mask"	"Low Predictability"	"1"	"aMvNM"	68	"3"	11.9166666666667	"Male"	"Version5"
"210823_c177"	15326180	1578.86349022871	1376.50404758798	1	"unsure_clock?"	"21H"	"clerk"	"aM"	"vNM"	"H"	"c"	"aMvNM"	4.16893828512428	2.59007479489557	2.7924342375363	1	"15326180_21HaMvNM"	"21H_aM_vNM.mp4"	7	"Version5"	"https://gorilla.sc/uploads/schedule/15326180?filename=21HaMvNMmp4-10-2.weba"	"Block1"	3	1	"/Users/kechun/Documents/GitHub/PerMaSC/Maskanalysis/questionnaire/child randomizer/data_exp_58325-v9_task-jhw4.csv"	16	1	9	"Windows 10"	"Chrome 92.0.4515.159"	"Version5"	11	11	"Male"	"English and another language (bilingual)"	"Raised in the UK from this age (please specify):"	"5 Months"	"Yes sometimes"	2	4	"Not very problamatic"	3	1	"Everything worked well"	""	""	""	""	"No"	"No"	"210823_c177"	"21H"	1376.50404758798	"Children"	"aM"	"vNM"	"H"	"Acoustic Mask"	"No Visual Mask"	"High Predictability"	"1"	"aMvNM"	1	"1"	11.9166666666667	"Male"	"Version5"
"210823_c177"	15326180	659.546761885242	367.054296905952	1	"pre-nasaling"	"39L"	"dent"	"aM"	"vM"	"L"	"c"	"aMvM"	2.57000723069582	1.91046046881058	2.20295293378987	1	"15326180_39LaMvM"	"39L_aM_vM.mp4"	7	"Version5"	"https://gorilla.sc/uploads/schedule/15326180?filename=39LaMvMmp4-69-2.weba"	"Block1"	1	58	"/Users/kechun/Documents/GitHub/PerMaSC/Maskanalysis/questionnaire/child randomizer/data_exp_58325-v9_task-jhw4.csv"	46	2	9	"Windows 10"	"Chrome 92.0.4515.159"	"Version5"	11	11	"Male"	"English and another language (bilingual)"	"Raised in the UK from this age (please specify):"	"5 Months"	"Yes sometimes"	2	4	"Not very problamatic"	3	1	"Everything worked well"	""	""	""	""	"No"	"No"	"210823_c177"	"39L"	367.054296905952	"Children"	"aM"	"vM"	"L"	"Acoustic Mask"	"Visual Mask"	"Low Predictability"	"1"	"aMvM"	58	"2"	11.9166666666667	"Male"	"Version5"
"210823_c177"	15326180	813.4404026294	688.55745860584	1	"pre-nasaling"	"5L"	"beam"	"aNM"	"vM"	"L"	"c"	"aNMvM"	2.95699611540158	2.14355571277218	2.26843865679574	1	"15326180_5LaNMvM"	"5L_aNM_vM.mp4"	7	"Version5"	"https://gorilla.sc/uploads/schedule/15326180?filename=5LaNMvMmp4-88-2.weba"	"Block1"	4	75	"/Users/kechun/Documents/GitHub/PerMaSC/Maskanalysis/questionnaire/child randomizer/data_exp_58325-v9_task-jhw4.csv"	76	3	9	"Windows 10"	"Chrome 92.0.4515.159"	"Version5"	11	11	"Male"	"English and another language (bilingual)"	"Raised in the UK from this age (please specify):"	"5 Months"	"Yes sometimes"	2	4	"Not very problamatic"	3	1	"Everything worked well"	""	""	""	""	"No"	"No"	"210823_c177"	"5L"	688.55745860584	"Children"	"aNM"	"vM"	"L"	"No Acoustic Mask"	"Visual Mask"	"Low Predictability"	"1"	"aNMvM"	75	"3"	11.9166666666667	"Male"	"Version5"
"210823_c177"	15326180	546.27720462474	422.31539906919	1	"pre-nasaling"	"60H"	"grin"	"aM"	"vM"	"H"	"c"	"aMvM"	2.89856379364619	2.35228658902145	2.476248394577	1	"15326180_60HaMvM"	"60H_aM_vM.mp4"	7	"Version5"	"https://gorilla.sc/uploads/schedule/15326180?filename=60HaMvMmp4-65-2.weba"	"Block1"	1	54	"/Users/kechun/Documents/GitHub/PerMaSC/Maskanalysis/questionnaire/child randomizer/data_exp_58325-v9_task-jhw4.csv"	46	2	9	"Windows 10"	"Chrome 92.0.4515.159"	"Version5"	11	11	"Male"	"English and another language (bilingual)"	"Raised in the UK from this age (please specify):"	"5 Months"	"Yes sometimes"	2	4	"Not very problamatic"	3	1	"Everything worked well"	""	""	""	""	"No"	"No"	"210823_c177"	"60H"	422.31539906919	"Children"	"aM"	"vM"	"H"	"Acoustic Mask"	"Visual Mask"	"High Predictability"	"1"	"aMvM"	54	"2"	11.9166666666667	"Male"	"Version5"
"210823_c177"	15326180	636.836459972923	398.339300882013	1	"pre-nasaling"	"72H"	"juice"	"aM"	"vM"	"H"	"c"	"aMvM"	2.63881287087855	2.00197641090563	2.24047356999654	1	"15326180_72HaMvM"	"72H_aM_vM.mp4"	7	"Version5"	"https://gorilla.sc/uploads/schedule/15326180?filename=72HaMvMmp4-79-2.weba"	"Block1"	4	66	"/Users/kechun/Documents/GitHub/PerMaSC/Maskanalysis/questionnaire/child randomizer/data_exp_58325-v9_task-jhw4.csv"	76	3	9	"Windows 10"	"Chrome 92.0.4515.159"	"Version5"	11	11	"Male"	"English and another language (bilingual)"	"Raised in the UK from this age (please specify):"	"5 Months"	"Yes sometimes"	2	4	"Not very problamatic"	3	1	"Everything worked well"	""	""	""	""	"No"	"No"	"210823_c177"	"72H"	398.339300882013	"Children"	"aM"	"vM"	"H"	"Acoustic Mask"	"Visual Mask"	"High Predictability"	"1"	"aMvM"	66	"3"	11.9166666666667	"Male"	"Version5"
"210823_c177"	15326180	418.236359531411	293.609276198081	1	"lame"	"8L"	"blame"	"aM"	"vNM"	"L"	"c"	"aMvNM"	2.18752689723135	1.76929053769994	1.89391762103327	1	"15326180_8LaMvNM"	"8L_aM_vNM.mp4"	7	"Version5"	"https://gorilla.sc/uploads/schedule/15326180?filename=8LaMvNMmp4-33-2.weba"	"Block1"	3	24	"/Users/kechun/Documents/GitHub/PerMaSC/Maskanalysis/questionnaire/child randomizer/data_exp_58325-v9_task-jhw4.csv"	16	1	9	"Windows 10"	"Chrome 92.0.4515.159"	"Version5"	11	11	"Male"	"English and another language (bilingual)"	"Raised in the UK from this age (please specify):"	"5 Months"	"Yes sometimes"	2	4	"Not very problamatic"	3	1	"Everything worked well"	""	""	""	""	"No"	"No"	"210823_c177"	"8L"	293.609276198081	"Children"	"aM"	"vNM"	"L"	"Acoustic Mask"	"No Visual Mask"	"Low Predictability"	"1"	"aMvNM"	24	"1"	11.9166666666667	"Male"	"Version5"
"210719_a08"	14866651	386.241911352673	260.252894912752	1	"grown?"	"61H"	"growl"	"aM"	"vNM"	"H"	"a"	"aMvNM"	2.49378568290791	2.10754377155524	2.23353278799516	2	"14866651_61HaMvNM"	"61H_aM_vNM.mp4"	7	"Version1"	"https://gorilla.sc/uploads/schedule/14866651?filename=audioFile-106-2.weba"	"Block1"	2	91	"/Users/kechun/Documents/GitHub/PerMaSC/Maskanalysis/questionnaire/adult randomizer/data_exp_58324-v9_task-b6hw.csv"	106	4	9	"Windows 10"	"Chrome 92.0.4515.107"	"Version1"	28	4	"Female"	"English"	"Born and raised in the UK"	""	"Yes sometimes"	2	2	"Can depend on levels of background noise"	1	1	"Everything worked well"	""	""	""	""	""	""	"210719_a08"	"61H"	260.252894912752	"Adults"	"aM"	"vNM"	"H"	"Acoustic Mask"	"No Visual Mask"	"High Predictability"	"1"	"aMvNM"	91	"4"	28.3333333333333	"Female"	"Version1"
"210719_a10"	14860025	400.478652186753	204.812642678933	1	"spoon?"	"121L"	"spool"	"aM"	"vM"	"L"	"a"	"aMvM"	2.53141717743473	2.13093852524798	2.3266045347558	2	"14860025_121LaMvM"	"121L_aM_vM.mp4"	7	"Version2"	"https://gorilla.sc/uploads/schedule/14860025?filename=audioFile-111-2.weba"	"Block1"	3	96	"/Users/kechun/Documents/GitHub/PerMaSC/Maskanalysis/questionnaire/adult randomizer/data_exp_58324-v9_task-8anv.csv"	106	4	9	"Windows 10"	"Chrome 92.0.4515.107"	"Version2"	22	9	"Female"	"English"	"Born and raised in the UK"	""	"Yes sometimes"	2	2	"I am aware that I need to speak louder and more clearly when wearing a face mask for others to be able to understand me. People wearing face masks sound a little bit muffled but I mostly understand what they are saying."	2	2	""	"There were issues with the videos"	""	""	""	"Occasionally in the final round the video lagged (although I wasn't sure if this was part of the study because it almost always froze just before the last word!)"	""	"210719_a10"	"121L"	204.812642678933	"Adults"	"aM"	"vM"	"L"	"Acoustic Mask"	"Visual Mask"	"Low Predictability"	"1"	"aMvM"	96	"4"	22.75	"Female"	"Version2"
"210719_c27"	15318438	197.486845177902	-8.78068355777817	1	"shtrap?"	"126H"	"strap"	"aNM"	"vNM"	"H"	"c"	"aNMvNM"	2.22796463115756	2.03047778597966	2.23674531471534	2	"15318438_126HaNMvNM"	"126H_aNM_vNM.mp4"	7	"Version3"	"https://gorilla.sc/uploads/schedule/15318438?filename=126HaNMvNMmp4-16-2.weba"	"Block1"	4	7	"/Users/kechun/Documents/GitHub/PerMaSC/Maskanalysis/questionnaire/child randomizer/data_exp_58325-v9_task-f475.csv"	16	1	9	"Windows 10"	"Chrome 92.0.4515.131"	"Version3"	10	0	"Female"	"English"	"Born and raised in the UK"	""	"I don't know"	4	1	""	1	1	"Everything worked well"	""	""	""	""	"twice the video paused itself"	"no"	"210719_c27"	"126H"	-8.78068355777817	"Children"	"aNM"	"vNM"	"H"	"No Acoustic Mask"	"No Visual Mask"	"High Predictability"	"1"	"aNMvNM"	7	"1"	10	"Female"	"Version3"
"210719_c45"	15153565	930.915860889168	825.721107802738	1	"draf?"	"47H"	"drum"	"aM"	"vNM"	"H"	"c"	"aMvNM"	3.12096774528118	2.19005188439201	2.29524663747844	2	"15153565_47HaMvNM"	"47H_aM_vNM.mp4"	7	"Version2"	"https://gorilla.sc/uploads/schedule/15153565?filename=47HaMvNMmp4-69-2.weba"	"Block1"	4	58	"/Users/kechun/Documents/GitHub/PerMaSC/Maskanalysis/questionnaire/child randomizer/data_exp_58325-v9_task-tucf.csv"	46	2	9	"Windows 7"	"Chrome 89.0.4389.90"	"Version2"	10	9	"Female"	"English"	"Born and raised in the UK"	""	"Yes sometimes"	2	1	"Noticed my daughter has to concentrate on listening more then usual"	1	1	"Everything worked well"	""	""	""	""	""	""	"210719_c45"	"47H"	825.721107802738	"Children"	"aM"	"vNM"	"H"	"Acoustic Mask"	"No Visual Mask"	"High Predictability"	"1"	"aMvNM"	58	"2"	10.75	"Female"	"Version2"
"210719_c51"	15126922	447.815386937406	195.434136937396	1	"unsure_is there a prenasaling or just a hmm before?"	"37L"	"deck"	"aNM"	"vM"	"L"	"c"	"aNMvM"	2.82730460444623	2.37948921750882	2.63187046750883	2	"15126922_37LaNMvM"	"37L_aNM_vM.mp4"	7	"Version6"	"https://gorilla.sc/uploads/schedule/15126922?filename=37LaNMvMmp4-15-2.weba"	"Block1"	2	6	"/Users/kechun/Documents/GitHub/PerMaSC/Maskanalysis/questionnaire/child randomizer/data_exp_58325-v9_task-9d5m.csv"	16	1	9	"Windows 10"	"Chrome 92.0.4515.131"	"Version6"	10	6	"Female"	"English"	"Born and raised in the UK"	""	"No"	1	1	"Alveena hasnt really spoken to anyone whilst they are wearing a mask. People usually pull the mask down to their chin and take a step back and then converse."	2	1	"Everything worked well"	""	""	""	""	""	"Alveena enjoyed the experiment."	"210719_c51"	"37L"	195.434136937396	"Children"	"aNM"	"vM"	"L"	"No Acoustic Mask"	"Visual Mask"	"Low Predictability"	"1"	"aNMvM"	6	"1"	10.5	"Female"	"Version6"
"210719_c51"	15126922	1038.00158084619	852.497939982438	1	"beap?"	"4L"	"beak"	"aNM"	"vM"	"L"	"c"	"aNMvM"	3.24142631125733	2.20342473041114	2.38892837127489	2	"15126922_4LaNMvM"	"4L_aNM_vM.mp4"	7	"Version6"	"https://gorilla.sc/uploads/schedule/15126922?filename=4LaNMvMmp4-49-2.weba"	"Block1"	3	38	"/Users/kechun/Documents/GitHub/PerMaSC/Maskanalysis/questionnaire/child randomizer/data_exp_58325-v9_task-9d5m.csv"	46	2	9	"Windows 10"	"Chrome 92.0.4515.131"	"Version6"	10	6	"Female"	"English"	"Born and raised in the UK"	""	"No"	1	1	"Alveena hasnt really spoken to anyone whilst they are wearing a mask. People usually pull the mask down to their chin and take a step back and then converse."	2	1	"Everything worked well"	""	""	""	""	""	"Alveena enjoyed the experiment."	"210719_c51"	"4L"	852.497939982438	"Children"	"aNM"	"vM"	"L"	"No Acoustic Mask"	"Visual Mask"	"Low Predictability"	"1"	"aNMvM"	38	"2"	10.5	"Female"	"Version6"
"210725_a113"	14876122	274.881474999266	-34.1472687350444	1	"unsure_psilk?"	"114H"	"silk"	"aNM"	"vM"	"H"	"a"	"aNMvM"	2.09431796525988	1.81943649026061	2.12846523399492	2	"14876122_114HaNMvM"	"114H_aNM_vM.mp4"	7	"Version3"	"https://gorilla.sc/uploads/schedule/14876122?filename=audioFile-127-2.weba"	"Block1"	2	112	"/Users/kechun/Documents/GitHub/PerMaSC/Maskanalysis/questionnaire/adult randomizer/data_exp_58324-v9_task-75wy.csv"	106	4	9	"Mac OS 10.15.7"	"Chrome 91.0.4472.114"	"Version3"	21	9	"Female"	"English"	"Born and raised in the UK"	""	"Yes frequently"	3	2	""	2	1	"Everything worked well"	""	""	""	""	"n/a"	"n/a"	"210725_a113"	"114H"	-34.1472687350444	"Adults"	"aNM"	"vM"	"H"	"No Acoustic Mask"	"Visual Mask"	"High Predictability"	"1"	"aNMvM"	112	"4"	21.75	"Female"	"Version3"
"210725_a113"	14876122	567.272700491738	273.268564462288	1	"bulge?"	"54L"	"fudge"	"aNM"	"vM"	"L"	"a"	"aNMvM"	3.09795260267987	2.53067990218813	2.82468403821758	2	"14876122_54LaNMvM"	"54L_aNM_vM.mp4"	7	"Version3"	"https://gorilla.sc/uploads/schedule/14876122?filename=audioFile-56-2.weba"	"Block1"	4	45	"/Users/kechun/Documents/GitHub/PerMaSC/Maskanalysis/questionnaire/adult randomizer/data_exp_58324-v9_task-75wy.csv"	46	2	9	"Mac OS 10.15.7"	"Chrome 91.0.4472.114"	"Version3"	21	9	"Female"	"English"	"Born and raised in the UK"	""	"Yes frequently"	3	2	""	2	1	"Everything worked well"	""	""	""	""	"n/a"	"n/a"	"210725_a113"	"54L"	273.268564462288	"Adults"	"aNM"	"vM"	"L"	"No Acoustic Mask"	"Visual Mask"	"Low Predictability"	"1"	"aNMvM"	45	"2"	21.75	"Female"	"Version3"
"210725_a113"	14876122	234.790845852219	169.212994974999	1	"unsure_sounds like tay"	"62L"	"hay"	"aNM"	"vM"	"L"	"a"	"aNMvM"	1.92262634311311	1.68783549726089	1.75341334813811	2	"14876122_62LaNMvM"	"62L_aNM_vM.mp4"	7	"Version3"	"https://gorilla.sc/uploads/schedule/14876122?filename=audioFile-76-2.weba"	"Block1"	3	63	"/Users/kechun/Documents/GitHub/PerMaSC/Maskanalysis/questionnaire/adult randomizer/data_exp_58324-v9_task-75wy.csv"	76	3	9	"Mac OS 10.15.7"	"Chrome 91.0.4472.114"	"Version3"	21	9	"Female"	"English"	"Born and raised in the UK"	""	"Yes frequently"	3	2	""	2	1	"Everything worked well"	""	""	""	""	"n/a"	"n/a"	"210725_a113"	"62L"	169.212994974999	"Adults"	"aNM"	"vM"	"L"	"No Acoustic Mask"	"Visual Mask"	"Low Predictability"	"1"	"aNMvM"	63	"3"	21.75	"Female"	"Version3"
"210725_a113"	14876122	316.371893153417	3.226385765287	1	"psips?"	"67L"	"hips"	"aNM"	"vNM"	"L"	"a"	"aNMvNM"	2.52707282704819	2.21070093389477	2.5238464412829	2	"14876122_67LaNMvNM"	"67L_aNM_vNM.mp4"	7	"Version3"	"https://gorilla.sc/uploads/schedule/14876122?filename=audioFile-113-2.weba"	"Block1"	2	98	"/Users/kechun/Documents/GitHub/PerMaSC/Maskanalysis/questionnaire/adult randomizer/data_exp_58324-v9_task-75wy.csv"	106	4	9	"Mac OS 10.15.7"	"Chrome 91.0.4472.114"	"Version3"	21	9	"Female"	"English"	"Born and raised in the UK"	""	"Yes frequently"	3	2	""	2	1	"Everything worked well"	""	""	""	""	"n/a"	"n/a"	"210725_a113"	"67L"	3.226385765287	"Adults"	"aNM"	"vNM"	"L"	"No Acoustic Mask"	"No Visual Mask"	"Low Predictability"	"1"	"aNMvNM"	98	"4"	21.75	"Female"	"Version3"
"210725_a113"	14876122	52.6370484041103	-148.32211164878	1	"unsure_chive?"	"68H"	"hive"	"aM"	"vNM"	"H"	"a"	"aMvNM"	2.28680463031867	2.23416758191456	2.43512674196745	2	"14876122_68HaMvNM"	"68H_aM_vNM.mp4"	7	"Version3"	"https://gorilla.sc/uploads/schedule/14876122?filename=audioFile-89-2.weba"	"Block1"	3	76	"/Users/kechun/Documents/GitHub/PerMaSC/Maskanalysis/questionnaire/adult randomizer/data_exp_58324-v9_task-75wy.csv"	76	3	9	"Mac OS 10.15.7"	"Chrome 91.0.4472.114"	"Version3"	21	9	"Female"	"English"	"Born and raised in the UK"	""	"Yes frequently"	3	2	""	2	1	"Everything worked well"	""	""	""	""	"n/a"	"n/a"	"210725_a113"	"68H"	-148.32211164878	"Adults"	"aM"	"vNM"	"H"	"Acoustic Mask"	"No Visual Mask"	"High Predictability"	"1"	"aMvNM"	76	"3"	21.75	"Female"	"Version3"
"210725_a130"	14796603	1293.13951791858	1175.26628345536	1	"unsure_grown?"	"61L"	"growl"	"aNM"	"vM"	"L"	"a"	"aNMvM"	3.22675183416698	1.9336123162484	2.05148555071162	2	"14796603_61LaNMvM"	"61L_aNM_vM.mp4"	7	"Version8"	"https://gorilla.sc/uploads/schedule/14796603?filename=audioFile-83-2.weba"	"Block1"	2	70	"/Users/kechun/Documents/GitHub/PerMaSC/Maskanalysis/questionnaire/adult randomizer/data_exp_58324-v9_task-fbmh.csv"	76	3	9	"Windows 10"	"Chrome 92.0.4515.107"	"Version8"	45	10	"Female"	"English"	"Born and raised in the UK"	""	"Yes frequently"	3	3	"Muffled speech"	2	1	"Everything worked well"	""	""	""	""	"None"	"No"	"210725_a130"	"61L"	1175.26628345536	"Adults"	"aNM"	"vM"	"L"	"No Acoustic Mask"	"Visual Mask"	"Low Predictability"	"1"	"aNMvM"	70	"3"	45.8333333333333	"Female"	"Version8"
"210725_a132"	14693662	586.163814395699	371.456106062269	1	"unreleased p"	"107L"	"rope"	"aNM"	"vNM"	"L"	"a"	"aNMvNM"	2.7841118545566	2.1979480401609	2.41265574849433	2	"14693662_107LaNMvNM"	"107L_aNM_vNM.mp4"	7	"Version1"	"https://gorilla.sc/uploads/schedule/14693662?filename=audioFile-52-2.weba"	"Block1"	1	41	"/Users/kechun/Documents/GitHub/PerMaSC/Maskanalysis/questionnaire/adult randomizer/data_exp_58324-v9_task-b6hw.csv"	46	2	9	"Windows 10"	"Chrome 91.0.4472.124"	"Version1"	23	1	"Female"	"English"	"Born and raised in the UK"	""	"Yes sometimes"	3	2	""	1	1	"Everything worked well"	""	""	""	""	""	""	"210725_a132"	"107L"	371.456106062269	"Adults"	"aNM"	"vNM"	"L"	"No Acoustic Mask"	"No Visual Mask"	"Low Predictability"	"1"	"aNMvNM"	41	"2"	23.0833333333333	"Female"	"Version1"
"210725_a132"	14693662	629.567692470659	370.10609867716	1	"unsure_unsure about the onset"	"72L"	"juice"	"aNM"	"vM"	"L"	"a"	"aNMvM"	2.73372925121376	2.1041615587431	2.3636231525366	2	"14693662_72LaNMvM"	"72L_aNM_vM.mp4"	7	"Version1"	"https://gorilla.sc/uploads/schedule/14693662?filename=audioFile-74-2.weba"	"Block1"	4	61	"/Users/kechun/Documents/GitHub/PerMaSC/Maskanalysis/questionnaire/adult randomizer/data_exp_58324-v9_task-b6hw.csv"	76	3	9	"Windows 10"	"Chrome 91.0.4472.124"	"Version1"	23	1	"Female"	"English"	"Born and raised in the UK"	""	"Yes sometimes"	3	2	""	1	1	"Everything worked well"	""	""	""	""	""	""	"210725_a132"	"72L"	370.10609867716	"Adults"	"aNM"	"vM"	"L"	"No Acoustic Mask"	"Visual Mask"	"Low Predictability"	"1"	"aNMvM"	61	"3"	23.0833333333333	"Female"	"Version1"
"210725_a132"	14693662	1028.78518193344	756.874302303805	1	"bent"	"7H"	"bend"	"aM"	"vM"	"H"	"a"	"aMvM"	3.16807719089906	2.13929200896562	2.41120288859525	2	"14693662_7HaMvM"	"7H_aM_vM.mp4"	7	"Version1"	"https://gorilla.sc/uploads/schedule/14693662?filename=audioFile-27-2.weba"	"Block1"	2	18	"/Users/kechun/Documents/GitHub/PerMaSC/Maskanalysis/questionnaire/adult randomizer/data_exp_58324-v9_task-b6hw.csv"	16	1	9	"Windows 10"	"Chrome 91.0.4472.124"	"Version1"	23	1	"Female"	"English"	"Born and raised in the UK"	""	"Yes sometimes"	3	2	""	1	1	"Everything worked well"	""	""	""	""	""	""	"210725_a132"	"7H"	756.874302303805	"Adults"	"aM"	"vM"	"H"	"Acoustic Mask"	"Visual Mask"	"High Predictability"	"1"	"aMvM"	18	"1"	23.0833333333333	"Female"	"Version1"
"210725_a132"	14693662	403.419037508225	61.5978569527442	1	"voiced g"	"82L"	"lungs"	"aM"	"vNM"	"L"	"a"	"aMvNM"	3.03864328250756	2.63522424499934	2.97704542555482	2	"14693662_82LaMvNM"	"82L_aM_vNM.mp4"	7	"Version1"	"https://gorilla.sc/uploads/schedule/14693662?filename=audioFile-126-2.weba"	"Block1"	3	111	"/Users/kechun/Documents/GitHub/PerMaSC/Maskanalysis/questionnaire/adult randomizer/data_exp_58324-v9_task-b6hw.csv"	106	4	9	"Windows 10"	"Chrome 91.0.4472.124"	"Version1"	23	1	"Female"	"English"	"Born and raised in the UK"	""	"Yes sometimes"	3	2	""	1	1	"Everything worked well"	""	""	""	""	""	""	"210725_a132"	"82L"	61.5978569527442	"Adults"	"aM"	"vNM"	"L"	"Acoustic Mask"	"No Visual Mask"	"Low Predictability"	"1"	"aMvNM"	111	"4"	23.0833333333333	"Female"	"Version1"
"210725_a132"	14693662	626.534939561028	287.480772894368	1	"unfinished?"	"9L"	"blast"	"aM"	"vNM"	"L"	"a"	"aMvNM"	2.51419196088594	1.88765702132491	2.22671118799157	2	"14693662_9LaMvNM"	"9L_aM_vNM.mp4"	7	"Version1"	"https://gorilla.sc/uploads/schedule/14693662?filename=audioFile-83-2.weba"	"Block1"	4	70	"/Users/kechun/Documents/GitHub/PerMaSC/Maskanalysis/questionnaire/adult randomizer/data_exp_58324-v9_task-b6hw.csv"	76	3	9	"Windows 10"	"Chrome 91.0.4472.124"	"Version1"	23	1	"Female"	"English"	"Born and raised in the UK"	""	"Yes sometimes"	3	2	""	1	1	"Everything worked well"	""	""	""	""	""	""	"210725_a132"	"9L"	287.480772894368	"Adults"	"aM"	"vNM"	"L"	"Acoustic Mask"	"No Visual Mask"	"Low Predictability"	"1"	"aMvNM"	70	"3"	23.0833333333333	"Female"	"Version1"
"210725_a133"	14990368	850.790049332776	665.286408469026	1	"unsure_beat?"	"4L"	"beak"	"aNM"	"vNM"	"L"	"a"	"aNMvNM"	3.05421477974392	2.20342473041114	2.38892837127489	2	"14990368_4LaNMvNM"	"4L_aNM_vNM.mp4"	7	"Version8"	"https://gorilla.sc/uploads/schedule/14990368?filename=4LaNMvNMmp4-87-2.weba"	"Block1"	3	74	"/Users/kechun/Documents/GitHub/PerMaSC/Maskanalysis/questionnaire/adult randomizer/data_exp_58324-v9_task-fbmh.csv"	76	3	9	"Windows 10"	"Edge 92.0.902.67"	"Version8"	42	4	"Female"	"English"	"Born and raised in the UK"	""	"Yes sometimes"	2	3	"Face masks sometimes result in muffled speech which is difficult to understand, especially in settings with higher levels of background noise i.e. ordering at a coffee shop"	2	2	"Everything worked well"	""	""	""	""	""	""	"210725_a133"	"4L"	665.286408469026	"Adults"	"aNM"	"vNM"	"L"	"No Acoustic Mask"	"No Visual Mask"	"Low Predictability"	"1"	"aNMvNM"	74	"3"	42.3333333333333	"Female"	"Version8"
"210725_a152"	15094721	859.33478355274	676.48685110324	1	"unsure_it sounds like 'clock'"	"21L"	"clerk"	"aM"	"vM"	"L"	"a"	"aMvM"	3.01818760193207	2.15885281837933	2.34170075082883	2	"15094721_21LaMvM"	"21L_aM_vM.mp4"	7	"Version4"	"https://gorilla.sc/uploads/schedule/15094721?filename=21LaMvMmp4-120-2.weba"	"Block1"	3	105	"/Users/kechun/Documents/GitHub/PerMaSC/Maskanalysis/questionnaire/adult randomizer/data_exp_58324-v9_task-7xnq.csv"	106	4	9	"Mac OS 10.13.6"	"Chrome 92.0.4515.107"	"Version4"	29	9	"Male"	"English"	"Born and raised in the UK"	""	"Yes sometimes"	2	1	""	1	1	"Everything worked well"	""	""	""	""	"one word confirmation did not load"	"none"	"210725_a152"	"21L"	676.48685110324	"Adults"	"aM"	"vM"	"L"	"Acoustic Mask"	"Visual Mask"	"Low Predictability"	"1"	"aMvM"	105	"4"	29.75	"Male"	"Version4"
"210725_a81"	15036602	520.042289384521	386.924642325681	1	"unsure__curl?"	"35L"	"curb"	"aM"	"vNM"	"L"	"a"	"aMvNM"	2.74750253872861	2.22746024934409	2.36057789640293	2	"15036602_35LaMvNM"	"35L_aM_vNM.mp4"	7	"Version3"	"https://gorilla.sc/uploads/schedule/15036602?filename=35LaMvNMmp4-60-2.weba"	"Block1"	4	49	"/Users/kechun/Documents/GitHub/PerMaSC/Maskanalysis/questionnaire/adult randomizer/data_exp_58324-v9_task-75wy.csv"	46	2	9	"Mac OS 10.15"	"Firefox 89.0"	"Version3"	29	0	"Female"	"English"	"Raised in the UK from this age (please specify):"	"Lived in the UK ages 0-4, 8-12, 15-17 then also in adulthood."	"Yes sometimes"	3	4	"It's harder when you don't know someone e.g. in a shop. Or if there are barriers between you e.g. perspex in shop."	2	2	"Everything worked well"	""	""	""	""	""	""	"210725_a81"	"35L"	386.924642325681	"Adults"	"aM"	"vNM"	"L"	"Acoustic Mask"	"No Visual Mask"	"Low Predictability"	"1"	"aMvNM"	49	"2"	29	"Female"	"Version3"
